"","Subnum","Block","Trial","Condition","OldNew","Setsize","Serpos","Lag","Response","Correctness","RT","WhichProbe","prob1","prob2","prob3","prob4","prob5","prob6","surveyq"
"1",1,1,1,"1","1","6",4,3,1,1,2255,1,7,10,6,1,8,5,NA
"2",1,1,3,"5","1","4",3,2,1,1,545,6,7,2,6,10,0,0,NA
"3",1,1,4,"5","1","2",1,2,1,1,1584,6,6,2,0,0,0,0,NA
"4",1,1,5,"3","2","4",0,0,2,1,824,3,2,9,5,10,0,0,NA
"5",1,1,6,"5","2","6",0,0,1,0,966,10,9,2,6,7,5,8,NA
"6",1,1,7,"3","2","6",0,0,2,1,782,3,5,2,8,9,10,6,NA
"7",1,1,8,"5","1","4",2,3,1,1,920,9,6,9,2,7,0,0,NA
"8",1,1,9,"1","1","4",2,3,1,1,780,1,6,1,8,5,0,0,NA
"9",1,1,10,"5","1","6",1,6,1,1,924,5,5,7,10,2,8,9,NA
"10",1,1,11,"3","2","4",0,0,2,1,784,3,8,2,7,9,0,0,NA
"11",1,1,12,"2","1","4",1,4,1,1,794,2,2,8,7,9,0,0,NA
"12",1,1,13,"5","1","6",3,4,1,1,665,10,8,9,10,7,2,6,NA
"13",1,1,14,"5","1","2",2,1,2,0,642,9,8,9,0,0,0,0,NA
"14",1,1,15,"1","1","4",1,4,1,1,754,1,1,9,8,7,0,0,NA
"15",1,1,16,"5","2","6",0,0,1,0,787,10,8,6,7,5,9,2,NA
"16",1,1,17,"5","2","4",0,0,2,1,1085,6,1,10,9,5,0,0,NA
"17",1,1,18,"4","2","2",0,0,2,1,805,4,5,7,0,0,0,0,NA
"18",1,1,19,"5","1","2",1,2,1,1,840,7,7,2,0,0,0,0,NA
"19",1,1,20,"5","1","6",6,1,1,1,678,5,10,2,6,9,8,5,NA
"20",1,1,21,"1","1","6",6,1,1,1,586,1,5,9,8,6,7,1,NA
"21",1,1,22,"5","2","2",0,0,2,1,1558,9,5,6,0,0,0,0,NA
"22",1,1,23,"5","1","4",2,3,1,1,1393,10,5,10,2,8,0,0,NA
"23",1,1,24,"4","2","6",0,0,2,1,760,4,8,9,2,5,6,10,NA
"24",1,1,25,"5","2","6",0,0,1,0,1289,6,7,10,8,9,2,5,NA
"25",1,2,1,"5","2","6",0,0,1,0,1249,7,2,6,9,8,5,10,NA
"26",1,2,2,"5","1","2",2,1,1,1,707,10,7,10,0,0,0,0,NA
"27",1,2,3,"5","1","6",3,4,1,1,805,9,8,2,9,5,10,6,NA
"28",1,2,4,"5","2","2",0,0,2,1,714,5,6,1,0,0,0,0,NA
"29",1,2,5,"5","2","2",0,0,1,0,465,10,8,6,0,0,0,0,NA
"30",1,2,6,"3","2","6",0,0,2,1,812,3,6,2,8,10,7,9,NA
"31",1,2,7,"5","2","2",0,0,1,0,560,5,9,10,0,0,0,0,NA
"32",1,2,8,"2","1","2",2,1,1,1,783,2,7,2,0,0,0,0,NA
"33",1,2,9,"5","1","2",2,1,1,1,771,6,7,6,0,0,0,0,NA
"34",1,2,10,"2","1","4",2,3,1,1,1037,2,8,2,10,7,0,0,NA
"35",1,2,11,"4","2","4",0,0,2,1,573,4,2,5,6,10,0,0,NA
"36",1,2,12,"5","2","4",0,0,2,1,1504,8,9,10,2,5,0,0,NA
"37",1,2,13,"5","1","4",4,1,1,1,797,5,9,6,2,5,0,0,NA
"38",1,2,14,"5","1","2",1,2,1,1,881,9,9,2,0,0,0,0,NA
"39",1,2,15,"4","2","4",0,0,2,1,695,4,8,1,5,10,0,0,NA
"40",1,2,16,"1","1","2",1,2,1,1,879,1,1,10,0,0,0,0,NA
"41",1,2,17,"5","2","4",0,0,2,1,790,7,10,2,8,5,0,0,NA
"42",1,2,18,"4","2","2",0,0,2,1,506,4,9,7,0,0,0,0,NA
"43",1,2,19,"3","2","4",0,0,2,1,528,3,8,7,2,10,0,0,NA
"44",1,2,20,"5","1","2",2,1,1,1,431,5,9,5,0,0,0,0,NA
"45",1,2,21,"1","1","4",1,4,2,0,1111,1,1,10,9,6,0,0,NA
"46",1,2,22,"4","2","6",0,0,2,1,489,4,10,6,5,2,7,9,NA
"47",1,2,23,"5","1","4",3,2,1,1,1023,10,2,5,10,9,0,0,NA
"48",1,2,24,"2","1","2",2,1,1,1,554,2,8,2,0,0,0,0,NA
"49",1,2,25,"3","2","4",0,0,2,1,477,3,2,9,10,5,0,0,NA
"50",1,3,1,"3","2","6",0,0,2,1,540,3,2,9,10,5,8,6,NA
"51",1,3,2,"5","1","2",1,2,1,1,762,7,7,5,0,0,0,0,NA
"52",1,3,3,"1","1","2",2,1,1,1,656,1,8,1,0,0,0,0,NA
"53",1,3,4,"1","1","6",1,6,1,1,708,1,1,8,6,10,9,5,NA
"54",1,3,5,"5","1","6",1,6,1,1,839,7,7,10,8,2,5,6,NA
"55",1,3,6,"2","1","6",5,2,1,1,532,2,10,5,9,6,2,8,NA
"56",1,3,7,"2","1","6",2,5,1,1,557,2,8,2,9,7,5,6,NA
"57",1,3,8,"3","2","4",0,0,2,1,529,3,5,8,7,2,0,0,NA
"58",1,3,9,"5","1","6",1,6,1,1,538,5,5,6,8,7,2,9,NA
"59",1,3,10,"5","1","6",1,6,1,1,707,8,8,6,10,9,7,2,NA
"60",1,3,11,"5","1","2",2,1,1,1,427,6,5,6,0,0,0,0,NA
"61",1,3,12,"5","2","6",0,0,2,1,697,9,2,5,6,7,10,8,NA
"62",1,3,13,"1","1","6",5,2,1,1,636,1,8,10,9,6,1,7,NA
"63",1,3,14,"5","1","4",1,4,1,1,571,8,8,2,10,9,0,0,NA
"64",1,3,15,"3","2","2",0,0,2,1,473,3,8,5,0,0,0,0,NA
"65",1,3,16,"3","2","6",0,0,2,1,613,3,5,2,8,7,6,9,NA
"66",1,3,17,"5","1","2",2,1,1,1,577,10,2,10,0,0,0,0,NA
"67",1,3,18,"5","1","2",2,1,1,1,478,6,2,6,0,0,0,0,NA
"68",1,3,19,"3","2","6",0,0,2,1,586,3,7,5,2,10,9,6,NA
"69",1,3,20,"5","2","4",0,0,2,1,748,10,7,6,2,9,0,0,NA
"70",1,3,21,"2","1","4",1,4,1,1,1174,2,2,10,5,7,0,0,NA
"71",1,3,22,"5","1","2",2,1,1,1,427,7,1,7,0,0,0,0,NA
"72",1,3,23,"5","2","6",0,0,2,1,713,5,6,7,2,8,9,10,NA
"73",1,3,24,"2","1","4",1,4,1,1,1237,2,2,9,5,6,0,0,NA
"74",1,3,25,"5","2","2",0,0,2,1,456,10,7,6,0,0,0,0,NA
"75",1,4,1,"5","1","2",1,2,1,1,596,9,9,10,0,0,0,0,NA
"76",1,4,2,"1","1","2",1,2,1,1,416,1,1,7,0,0,0,0,NA
"77",1,4,3,"2","1","2",2,1,1,1,323,2,9,2,0,0,0,0,NA
"78",1,4,4,"5","1","6",1,6,1,1,582,7,7,5,6,10,2,8,NA
"79",1,4,5,"5","1","2",2,1,1,1,322,10,5,10,0,0,0,0,NA
"80",1,4,6,"5","1","4",4,1,1,1,350,7,8,5,2,7,0,0,NA
"81",1,4,7,"5","2","4",0,0,2,1,585,6,9,10,2,8,0,0,NA
"82",1,4,8,"5","2","6",0,0,2,1,545,5,7,6,9,2,8,10,NA
"83",1,4,9,"5","1","6",6,1,1,1,458,6,8,2,9,7,10,6,NA
"84",1,4,10,"5","1","2",1,2,1,1,428,7,7,2,0,0,0,0,NA
"85",1,4,11,"5","1","2",2,1,1,1,335,6,2,6,0,0,0,0,NA
"86",1,4,12,"5","2","6",0,0,2,1,752,9,7,2,8,10,5,6,NA
"87",1,4,13,"1","1","2",1,2,1,1,454,1,1,6,0,0,0,0,NA
"88",1,4,14,"3","2","6",0,0,2,1,450,3,5,8,9,2,7,10,NA
"89",1,4,15,"5","1","6",2,5,1,1,719,9,8,9,2,6,5,7,NA
"90",1,4,16,"5","1","2",1,2,1,1,454,6,6,5,0,0,0,0,NA
"91",1,4,17,"5","1","4",1,4,1,1,717,9,9,6,7,2,0,0,NA
"92",1,4,18,"5","2","2",0,0,2,1,485,9,10,7,0,0,0,0,NA
"93",1,4,19,"3","2","2",0,0,2,1,453,3,2,8,0,0,0,0,NA
"94",1,4,20,"3","2","2",0,0,2,1,407,3,6,10,0,0,0,0,NA
"95",1,4,21,"2","1","4",3,2,1,1,625,2,5,6,2,9,0,0,NA
"96",1,4,22,"5","1","6",1,6,1,1,582,9,9,6,7,5,2,10,NA
"97",1,4,23,"4","2","6",0,0,2,1,589,4,6,9,5,7,8,2,NA
"98",1,4,24,"3","2","4",0,0,2,1,495,3,10,2,9,6,0,0,NA
"99",1,4,25,"3","2","4",0,0,2,1,469,3,5,10,8,2,0,0,NA
"100",1,5,1,"3","2","4",0,0,2,1,514,3,8,2,7,9,0,0,NA
"101",1,5,2,"3","2","4",0,0,2,1,502,3,2,8,9,7,0,0,NA
"102",1,5,3,"5","1","2",2,1,1,1,342,8,6,8,0,0,0,0,NA
"103",1,5,4,"5","2","2",0,0,2,1,413,5,6,7,0,0,0,0,NA
"104",1,5,5,"3","2","6",0,0,2,1,523,3,5,10,9,2,8,6,NA
"105",1,5,6,"5","1","2",1,2,1,1,394,9,9,6,0,0,0,0,NA
"106",1,5,7,"3","2","6",0,0,2,1,489,3,9,8,7,5,2,10,NA
"107",1,5,8,"1","1","2",2,1,1,1,409,1,7,1,0,0,0,0,NA
"108",1,5,9,"5","1","4",3,2,1,1,482,8,10,5,8,9,0,0,NA
"109",1,5,10,"5","1","4",4,1,1,1,344,5,6,9,8,5,0,0,NA
"110",1,5,11,"3","2","4",0,0,2,1,484,3,5,10,9,6,0,0,NA
"111",1,5,12,"5","1","4",4,1,1,1,330,8,7,2,5,8,0,0,NA
"112",1,5,13,"5","2","6",0,0,1,0,603,6,10,2,9,5,8,7,NA
"113",1,5,14,"5","2","6",0,0,2,1,961,8,2,7,9,6,10,5,NA
"114",1,5,15,"5","1","6",1,6,1,1,762,9,9,6,7,2,8,10,NA
"115",1,5,16,"5","1","2",2,1,1,1,288,8,2,8,0,0,0,0,NA
"116",1,5,17,"3","2","4",0,0,2,1,493,3,8,10,7,2,0,0,NA
"117",1,5,18,"5","1","4",2,3,1,1,755,5,8,5,2,9,0,0,NA
"118",1,5,19,"5","2","4",0,0,2,1,510,7,10,9,2,5,0,0,NA
"119",1,5,20,"3","2","6",0,0,2,1,521,3,7,2,9,5,6,8,NA
"120",1,5,21,"5","1","2",1,2,1,1,472,8,8,5,0,0,0,0,NA
"121",1,5,22,"5","1","6",4,3,1,1,660,9,5,7,2,9,6,8,NA
"122",1,5,23,"2","1","2",2,1,1,1,350,2,10,2,0,0,0,0,NA
"123",1,5,24,"5","1","2",2,1,1,1,308,10,2,10,0,0,0,0,NA
"124",1,5,25,"5","1","2",2,1,1,1,284,5,7,5,0,0,0,0,NA
"125",1,6,1,"5","1","4",4,1,1,1,318,9,5,2,7,9,0,0,NA
"126",1,6,2,"5","2","6",0,0,1,0,576,5,8,6,2,10,7,9,NA
"127",1,6,3,"5","2","4",0,0,2,1,466,6,2,9,5,7,0,0,NA
"128",1,6,4,"3","2","2",0,0,2,1,500,3,9,6,0,0,0,0,NA
"129",1,6,5,"5","1","6",2,5,1,1,670,9,6,9,10,2,8,5,NA
"130",1,6,6,"5","1","2",1,2,1,1,423,7,7,2,0,0,0,0,NA
"131",1,6,7,"5","1","6",3,4,1,1,933,10,2,5,10,9,8,6,NA
"132",1,6,8,"4","2","6",0,0,2,1,462,4,9,5,7,10,6,2,NA
"133",1,6,9,"5","1","4",1,4,1,1,678,5,5,8,9,2,0,0,NA
"134",1,6,10,"2","1","2",1,2,1,1,543,2,2,10,0,0,0,0,NA
"135",1,6,11,"5","1","4",1,4,1,1,531,9,9,6,2,5,0,0,NA
"136",1,6,12,"5","1","2",1,2,1,1,305,5,5,6,0,0,0,0,NA
"137",1,6,13,"4","2","4",0,0,2,1,494,4,10,8,7,2,0,0,NA
"138",1,6,14,"5","2","4",0,0,2,1,1044,8,2,10,7,9,0,0,NA
"139",1,6,15,"4","2","6",0,0,2,1,505,4,5,6,9,10,2,8,NA
"140",1,6,16,"5","2","4",0,0,2,1,703,5,8,2,6,10,0,0,NA
"141",1,6,17,"5","1","4",1,4,1,1,732,5,5,10,7,2,0,0,NA
"142",1,6,18,"5","1","2",2,1,1,1,290,9,2,9,0,0,0,0,NA
"143",1,6,19,"5","2","6",0,0,1,0,1142,9,7,2,8,6,5,10,NA
"144",1,6,20,"3","2","2",0,0,2,1,540,3,9,2,0,0,0,0,NA
"145",1,6,21,"3","2","2",0,0,2,1,491,3,9,10,0,0,0,0,NA
"146",1,6,22,"5","1","4",3,2,1,1,704,7,8,2,7,5,0,0,NA
"147",1,6,23,"3","2","4",0,0,2,1,493,3,7,5,6,9,0,0,NA
"148",1,6,24,"3","2","2",0,0,2,1,430,3,6,8,0,0,0,0,NA
"149",1,6,25,"3","2","6",0,0,2,1,475,3,7,8,2,10,6,5,NA
"150",1,7,1,"3","2","6",0,0,2,1,438,3,6,10,8,2,5,9,NA
"151",1,7,2,"2","1","6",3,4,1,1,611,2,7,8,2,6,5,9,NA
"152",1,7,3,"1","1","2",1,2,1,1,351,1,1,5,0,0,0,0,NA
"153",1,7,4,"3","2","2",0,0,2,1,437,3,5,6,0,0,0,0,NA
"154",1,7,5,"5","1","2",2,1,1,1,359,9,10,9,0,0,0,0,NA
"155",1,7,6,"1","1","4",4,1,1,1,338,1,10,5,9,1,0,0,NA
"156",1,7,7,"5","2","4",0,0,2,1,510,7,2,8,6,9,0,0,NA
"157",1,7,8,"5","2","6",0,0,2,1,985,5,6,9,10,2,7,8,NA
"158",1,7,9,"1","1","4",3,2,1,1,442,1,5,10,1,7,0,0,NA
"159",1,7,10,"5","1","6",5,2,1,1,600,7,5,9,10,8,7,2,NA
"160",1,7,11,"5","1","2",1,2,1,1,404,6,6,9,0,0,0,0,NA
"161",1,7,12,"2","1","2",1,2,1,1,840,2,2,9,0,0,0,0,NA
"162",1,7,13,"5","1","6",4,3,1,1,501,9,8,7,5,9,2,6,NA
"163",1,7,14,"3","2","4",0,0,2,1,490,3,10,9,8,2,0,0,NA
"164",1,7,15,"5","1","4",3,2,1,1,448,8,6,2,8,5,0,0,NA
"165",1,7,16,"2","1","6",3,4,1,1,492,2,5,9,2,7,6,10,NA
"166",1,7,17,"2","1","4",3,2,1,1,401,2,5,7,2,9,0,0,NA
"167",1,7,18,"5","2","2",0,0,2,1,422,9,8,6,0,0,0,0,NA
"168",1,7,19,"5","1","2",1,2,1,1,344,8,8,10,0,0,0,0,NA
"169",1,7,20,"3","2","4",0,0,2,1,468,3,10,9,5,2,0,0,NA
"170",1,7,21,"4","2","4",0,0,2,1,411,4,2,10,6,8,0,0,NA
"171",1,7,22,"5","1","4",3,2,1,1,452,8,2,7,8,9,0,0,NA
"172",1,7,23,"2","1","2",1,2,1,1,341,2,2,5,0,0,0,0,NA
"173",1,7,24,"5","1","6",3,4,1,1,455,8,2,7,8,10,9,6,NA
"174",1,7,25,"5","1","4",1,4,2,0,1246,9,9,10,2,7,0,0,1
"175",2,1,1,"5","2","2",0,0,2,1,2969,7,2,5,0,0,0,0,NA
"176",2,1,2,"5","1","6",3,4,2,0,1340,6,2,10,6,5,9,8,NA
"177",2,1,3,"5","1","2",2,1,1,1,2987,9,7,9,0,0,0,0,NA
"178",2,1,4,"5","1","2",2,1,1,1,1720,8,10,8,0,0,0,0,NA
"179",2,1,5,"1","1","2",1,2,2,0,3303,1,1,7,0,0,0,0,NA
"180",2,1,6,"5","2","6",0,0,1,0,818,5,7,9,6,8,2,10,NA
"181",2,1,7,"5","1","6",1,6,1,1,2352,6,6,7,5,10,2,9,NA
"182",2,1,8,"5","2","4",0,0,2,1,2860,7,6,9,5,2,0,0,NA
"183",2,1,9,"5","1","4",2,3,1,1,3603,6,9,6,8,5,0,0,NA
"184",2,1,10,"4","2","6",0,0,2,1,1314,4,10,5,2,9,8,7,NA
"185",2,1,11,"5","2","2",0,0,2,1,1474,7,10,2,0,0,0,0,NA
"186",2,1,12,"3","2","2",0,0,2,1,2043,3,6,10,0,0,0,0,NA
"187",2,1,13,"1","1","2",2,1,1,1,1198,1,8,1,0,0,0,0,NA
"188",2,1,14,"5","2","4",0,0,2,1,2728,6,7,5,10,2,0,0,NA
"189",2,1,15,"4","2","4",0,0,2,1,1061,4,7,1,8,9,0,0,NA
"190",2,1,16,"4","2","4",0,0,1,0,1092,4,6,2,9,7,0,0,NA
"191",2,1,17,"4","2","2",0,0,2,1,1261,4,7,9,0,0,0,0,NA
"192",2,1,18,"5","1","6",4,3,1,1,2058,9,2,5,8,9,6,10,NA
"193",2,1,19,"5","2","6",0,0,2,1,1527,10,5,6,8,9,7,2,NA
"194",2,1,20,"5","1","6",3,4,2,0,1305,10,5,6,10,2,7,8,NA
"195",2,1,21,"3","2","2",0,0,2,1,889,3,2,5,0,0,0,0,NA
"196",2,1,22,"5","1","2",1,2,1,1,1338,6,6,5,0,0,0,0,NA
"197",2,1,23,"3","2","4",0,0,2,1,1486,3,2,6,10,7,0,0,NA
"198",2,1,24,"2","1","4",1,4,1,1,1996,2,2,10,6,9,0,0,NA
"199",2,1,25,"5","2","2",0,0,2,1,866,5,6,10,0,0,0,0,NA
"200",2,2,1,"5","1","2",1,2,1,1,2542,9,9,7,0,0,0,0,NA
"201",2,2,2,"3","2","4",0,0,2,1,803,3,8,7,2,9,0,0,NA
"202",2,2,3,"3","2","6",0,0,2,1,642,3,10,2,8,6,5,7,NA
"203",2,2,4,"5","1","2",1,2,1,1,876,7,7,5,0,0,0,0,NA
"204",2,2,5,"5","1","2",2,1,1,1,1390,7,10,7,0,0,0,0,NA
"205",2,2,6,"5","2","4",0,0,2,1,1200,8,10,2,7,5,0,0,NA
"206",2,2,7,"5","1","6",3,4,1,1,1087,8,2,10,8,9,7,6,NA
"207",2,2,8,"5","2","2",0,0,2,1,664,5,10,2,0,0,0,0,NA
"208",2,2,9,"5","1","6",6,1,1,1,1037,9,5,2,7,6,8,9,NA
"209",2,2,10,"5","1","2",2,1,1,1,1592,8,2,8,0,0,0,0,NA
"210",2,2,11,"2","1","2",2,1,1,1,797,2,5,2,0,0,0,0,NA
"211",2,2,12,"2","1","2",1,2,1,1,945,2,2,8,0,0,0,0,NA
"212",2,2,13,"3","2","2",0,0,2,1,592,3,2,10,0,0,0,0,NA
"213",2,2,14,"4","2","2",0,0,2,1,717,4,6,2,0,0,0,0,NA
"214",2,2,15,"5","2","2",0,0,2,1,868,5,10,2,0,0,0,0,NA
"215",2,2,16,"1","1","4",1,4,1,1,1131,1,1,6,10,8,0,0,NA
"216",2,2,17,"3","2","4",0,0,2,1,1143,3,2,10,8,5,0,0,NA
"217",2,2,18,"3","2","6",0,0,1,0,1417,3,9,2,10,5,6,7,NA
"218",2,2,19,"5","1","6",1,6,1,1,847,8,8,10,6,2,5,7,NA
"219",2,2,20,"4","2","6",0,0,2,1,1181,4,2,6,9,8,5,7,NA
"220",2,2,21,"1","1","2",1,2,1,1,1698,1,1,10,0,0,0,0,NA
"221",2,2,22,"3","2","2",0,0,2,1,675,3,7,10,0,0,0,0,NA
"222",2,2,23,"5","1","4",1,4,1,1,881,7,7,2,8,6,0,0,NA
"223",2,2,24,"5","2","2",0,0,2,1,722,10,5,2,0,0,0,0,NA
"224",2,2,25,"5","2","4",0,0,2,1,943,5,7,6,10,2,0,0,NA
"225",2,3,1,"3","2","6",0,0,2,1,1045,3,10,2,8,9,5,6,NA
"226",2,3,2,"5","2","2",0,0,2,1,688,7,6,10,0,0,0,0,NA
"227",2,3,3,"3","2","4",0,0,2,1,1102,3,2,10,7,8,0,0,NA
"228",2,3,4,"5","1","4",1,4,1,1,5227,8,8,5,2,6,0,0,NA
"229",2,3,5,"4","2","2",0,0,2,1,511,4,5,2,0,0,0,0,NA
"230",2,3,6,"5","2","2",0,0,2,1,1023,8,2,5,0,0,0,0,NA
"231",2,3,7,"3","2","4",0,0,2,1,992,3,9,2,8,10,0,0,NA
"232",2,3,8,"5","2","2",0,0,2,1,1117,5,7,10,0,0,0,0,NA
"233",2,3,9,"5","1","2",1,2,1,1,1204,8,8,9,0,0,0,0,NA
"234",2,3,10,"2","1","6",1,6,2,0,1139,2,2,10,7,8,6,5,NA
"235",2,3,11,"4","2","6",0,0,2,1,805,4,2,6,8,7,9,5,NA
"236",2,3,12,"5","2","6",0,0,1,0,1044,6,9,10,7,8,2,5,NA
"237",2,3,13,"5","1","6",5,2,1,1,1449,5,10,9,6,2,5,8,NA
"238",2,3,14,"5","2","4",0,0,2,1,969,7,2,10,9,5,0,0,NA
"239",2,3,15,"5","1","2",2,1,1,1,807,5,7,5,0,0,0,0,NA
"240",2,3,16,"5","1","6",6,1,1,1,1045,10,8,9,2,6,7,10,NA
"241",2,3,17,"3","2","6",0,0,2,1,635,3,2,7,5,9,8,10,NA
"242",2,3,18,"5","1","4",1,4,1,1,907,6,6,10,8,2,0,0,NA
"243",2,3,19,"5","2","2",0,0,2,1,875,9,2,10,0,0,0,0,NA
"244",2,3,20,"1","1","6",2,5,2,0,856,1,6,1,8,5,9,7,NA
"245",2,3,21,"5","2","4",0,0,2,1,1215,6,9,10,7,2,0,0,NA
"246",2,3,22,"5","2","4",0,0,2,1,1256,6,5,9,8,2,0,0,NA
"247",2,3,23,"5","1","4",2,3,1,1,1088,8,6,8,9,2,0,0,NA
"248",2,3,24,"5","2","2",0,0,2,1,920,6,2,10,0,0,0,0,NA
"249",2,3,25,"4","2","6",0,0,2,1,771,4,8,6,7,2,5,9,NA
"250",2,4,1,"2","1","4",2,3,1,1,1092,2,6,2,8,10,0,0,NA
"251",2,4,2,"5","1","6",4,3,1,1,1191,7,8,10,5,7,2,9,NA
"252",2,4,3,"1","1","2",2,1,1,1,988,1,7,1,0,0,0,0,NA
"253",2,4,4,"5","1","4",4,1,1,1,702,7,6,2,5,7,0,0,NA
"254",2,4,5,"5","2","4",0,0,1,0,860,7,9,2,5,10,0,0,NA
"255",2,4,6,"4","2","4",0,0,2,1,580,4,5,9,2,7,0,0,NA
"256",2,4,7,"2","1","4",1,4,1,1,854,2,2,10,7,8,0,0,NA
"257",2,4,8,"5","2","2",0,0,2,1,569,7,10,9,0,0,0,0,NA
"258",2,4,9,"5","1","6",4,3,1,1,769,6,10,5,2,6,9,7,NA
"259",2,4,10,"5","1","2",1,2,1,1,726,5,5,8,0,0,0,0,NA
"260",2,4,11,"5","2","2",0,0,2,1,606,7,10,6,0,0,0,0,NA
"261",2,4,12,"1","1","2",1,2,2,0,2410,1,1,8,0,0,0,0,NA
"262",2,4,13,"5","2","4",0,0,2,1,771,6,10,7,9,8,0,0,NA
"263",2,4,14,"2","1","6",4,3,1,1,852,2,8,9,6,2,5,7,NA
"264",2,4,15,"4","2","4",0,0,2,1,523,4,5,8,10,2,0,0,NA
"265",2,4,16,"5","1","4",3,2,1,1,768,9,7,8,9,2,0,0,NA
"266",2,4,17,"5","2","2",0,0,2,1,582,6,10,2,0,0,0,0,NA
"267",2,4,18,"5","1","2",1,2,1,1,674,7,7,2,0,0,0,0,NA
"268",2,4,19,"5","2","4",0,0,2,1,769,9,7,2,8,5,0,0,NA
"269",2,4,20,"5","1","6",5,2,1,1,866,7,5,9,2,10,7,6,NA
"270",2,4,21,"5","1","6",1,6,1,1,414,8,8,6,5,9,7,2,NA
"271",2,4,22,"4","2","6",0,0,2,1,573,4,2,8,10,7,5,9,NA
"272",2,4,23,"2","1","6",6,1,1,1,453,2,10,5,6,8,9,2,NA
"273",2,4,24,"1","1","4",1,4,2,0,668,1,1,10,5,6,0,0,NA
"274",2,4,25,"4","2","2",0,0,2,1,486,4,9,10,0,0,0,0,NA
"275",2,5,1,"5","1","6",1,6,1,1,1900,7,7,6,2,8,9,5,NA
"276",2,5,2,"3","2","2",0,0,2,1,372,3,8,2,0,0,0,0,NA
"277",2,5,3,"3","2","2",0,0,2,1,473,3,10,8,0,0,0,0,NA
"278",2,5,4,"2","1","4",2,3,1,1,800,2,6,2,5,9,0,0,NA
"279",2,5,5,"5","2","2",0,0,2,1,996,6,9,8,0,0,0,0,NA
"280",2,5,6,"5","2","6",0,0,2,1,1004,5,6,10,8,9,7,2,NA
"281",2,5,7,"5","2","4",0,0,1,0,1677,9,10,2,8,7,0,0,NA
"282",2,5,8,"2","1","4",3,2,2,0,596,2,7,10,2,9,0,0,NA
"283",2,5,9,"1","1","2",2,1,1,1,369,1,5,1,0,0,0,0,NA
"284",2,5,10,"3","2","2",0,0,2,1,423,3,10,2,0,0,0,0,NA
"285",2,5,11,"5","1","6",6,1,1,1,453,5,9,2,6,7,8,5,NA
"286",2,5,12,"4","2","2",0,0,2,1,423,4,2,8,0,0,0,0,NA
"287",2,5,13,"5","1","6",4,3,1,1,1557,7,2,8,10,7,9,6,NA
"288",2,5,14,"5","2","6",0,0,2,1,1270,9,5,6,7,10,2,8,NA
"289",2,5,15,"2","1","2",2,1,1,1,488,2,7,2,0,0,0,0,NA
"290",2,5,16,"1","1","4",1,4,1,1,478,1,1,9,6,7,0,0,NA
"291",2,5,17,"1","1","4",1,4,1,1,469,1,1,10,5,9,0,0,NA
"292",2,5,18,"1","1","4",3,2,1,1,716,1,10,9,1,5,0,0,NA
"293",2,5,19,"4","2","4",0,0,2,1,440,4,5,8,6,2,0,0,NA
"294",2,5,20,"2","1","4",1,4,1,1,465,2,2,9,8,7,0,0,NA
"295",2,5,21,"2","1","4",1,4,1,1,536,2,2,6,5,9,0,0,NA
"296",2,5,22,"3","2","4",0,0,2,1,508,3,2,5,9,7,0,0,NA
"297",2,5,23,"2","1","2",2,1,2,0,3996,2,5,2,0,0,0,0,NA
"298",2,5,24,"5","2","2",0,0,2,1,513,6,7,5,0,0,0,0,NA
"299",2,5,25,"2","1","2",1,2,1,1,513,2,2,8,0,0,0,0,NA
"300",2,6,1,"2","1","4",2,3,1,1,1270,2,7,2,5,10,0,0,NA
"301",2,6,2,"5","2","2",0,0,2,1,423,8,10,6,0,0,0,0,NA
"302",2,6,3,"3","2","4",0,0,2,1,496,3,5,2,6,7,0,0,NA
"303",2,6,4,"3","2","2",0,0,2,1,481,3,9,8,0,0,0,0,NA
"304",2,6,5,"5","1","6",4,3,2,0,605,10,8,5,9,10,2,7,NA
"305",2,6,6,"5","1","6",1,6,1,1,820,10,10,7,8,5,2,6,NA
"306",2,6,7,"5","2","4",0,0,2,1,1004,7,9,6,5,2,0,0,NA
"307",2,6,8,"5","1","4",3,2,1,1,1294,5,8,10,5,2,0,0,NA
"308",2,6,9,"2","1","6",1,6,2,0,426,2,2,10,8,5,6,9,NA
"309",2,6,10,"5","2","2",0,0,2,1,557,5,6,8,0,0,0,0,NA
"310",2,6,11,"2","1","4",2,3,1,1,513,2,9,2,5,8,0,0,NA
"311",2,6,12,"5","1","4",1,4,2,0,1174,10,10,2,7,8,0,0,NA
"312",2,6,13,"3","2","6",0,0,2,1,583,3,10,5,8,9,2,6,NA
"313",2,6,14,"5","1","4",4,1,1,1,553,7,10,2,5,7,0,0,NA
"314",2,6,15,"3","2","6",0,0,2,1,418,3,2,8,10,6,5,9,NA
"315",2,6,16,"5","2","2",0,0,2,1,453,7,2,10,0,0,0,0,NA
"316",2,6,17,"5","2","4",0,0,2,1,1021,5,8,10,2,6,0,0,NA
"317",2,6,18,"5","2","6",0,0,2,1,755,5,8,2,6,7,9,10,NA
"318",2,6,19,"5","1","6",5,2,1,1,820,6,9,10,8,7,6,2,NA
"319",2,6,20,"1","1","6",5,2,1,1,434,1,7,8,5,10,1,6,NA
"320",2,6,21,"2","1","2",1,2,2,0,677,2,2,10,0,0,0,0,NA
"321",2,6,22,"1","1","2",2,1,1,1,366,1,9,1,0,0,0,0,NA
"322",2,6,23,"5","2","6",0,0,2,1,847,7,6,5,8,9,10,2,NA
"323",2,6,24,"5","1","2",2,1,1,1,497,5,8,5,0,0,0,0,NA
"324",2,6,25,"5","2","6",0,0,1,0,461,5,2,6,7,8,10,9,NA
"325",2,7,1,"3","2","6",0,0,2,1,440,3,8,7,5,10,6,2,NA
"326",2,7,2,"5","1","4",1,4,2,0,848,10,10,7,8,2,0,0,NA
"327",2,7,3,"2","1","2",2,1,1,1,370,2,9,2,0,0,0,0,NA
"328",2,7,4,"5","2","2",0,0,2,1,680,7,6,10,0,0,0,0,NA
"329",2,7,5,"5","1","6",6,1,1,1,332,5,6,2,9,7,8,5,NA
"330",2,7,6,"2","1","4",2,3,1,1,760,2,9,2,6,8,0,0,NA
"331",2,7,7,"2","1","4",1,4,1,1,932,2,2,7,9,10,0,0,NA
"332",2,7,8,"5","1","4",2,3,1,1,440,8,2,8,10,7,0,0,NA
"333",2,7,9,"5","2","2",0,0,2,1,651,8,5,6,0,0,0,0,NA
"334",2,7,10,"2","1","2",2,1,1,1,485,2,6,2,0,0,0,0,NA
"335",2,7,11,"3","2","2",0,0,2,1,342,3,5,2,0,0,0,0,NA
"336",2,7,12,"5","2","4",0,0,2,1,482,9,2,8,6,5,0,0,NA
"337",2,7,13,"2","1","2",2,1,1,1,387,2,10,2,0,0,0,0,NA
"338",2,7,14,"4","2","2",0,0,2,1,456,4,10,6,0,0,0,0,NA
"339",2,7,15,"3","2","2",0,0,2,1,458,3,8,2,0,0,0,0,NA
"340",2,7,16,"5","2","6",0,0,2,1,855,8,2,9,5,10,7,6,NA
"341",2,7,17,"5","1","4",2,3,1,1,1134,10,5,10,8,2,0,0,NA
"342",2,7,18,"5","2","6",0,0,1,0,848,10,6,2,7,9,5,8,NA
"343",2,7,19,"5","1","4",1,4,1,1,599,9,9,10,8,2,0,0,NA
"344",2,7,20,"5","1","4",3,2,1,1,585,8,9,2,8,5,0,0,NA
"345",2,7,21,"4","2","6",0,0,2,1,864,4,2,7,8,10,9,6,NA
"346",2,7,22,"5","1","2",2,1,1,1,466,8,2,8,0,0,0,0,NA
"347",2,7,23,"5","1","6",3,4,1,1,798,7,2,6,7,9,8,5,NA
"348",2,7,24,"5","2","4",0,0,1,0,904,8,5,1,10,9,0,0,NA
"349",2,7,25,"1","1","6",2,5,1,1,1171,1,8,1,6,10,5,7,3
"350",3,1,1,"5","2","2",0,0,2,1,1539,10,5,9,0,0,0,0,NA
"351",3,1,2,"5","1","2",2,1,1,1,695,5,6,5,0,0,0,0,NA
"352",3,1,3,"1","1","4",2,3,1,1,1137,1,6,1,8,5,0,0,NA
"353",3,1,4,"5","1","4",3,2,1,1,764,6,8,10,6,7,0,0,NA
"354",3,1,5,"1","1","4",4,1,1,1,678,1,6,5,7,1,0,0,NA
"355",3,1,6,"5","1","4",3,2,1,1,706,6,5,2,6,7,0,0,NA
"356",3,1,7,"2","1","4",1,4,1,1,862,2,2,10,6,5,0,0,NA
"357",3,1,8,"5","1","2",1,2,1,1,527,5,5,8,0,0,0,0,NA
"358",3,1,9,"5","2","4",0,0,2,1,627,7,5,8,2,10,0,0,NA
"359",3,1,10,"5","1","4",1,4,1,1,1491,9,9,8,2,10,0,0,NA
"360",3,1,11,"5","1","4",4,1,1,1,1455,8,9,6,2,8,0,0,NA
"361",3,1,12,"2","1","4",3,2,1,1,1453,2,5,10,2,7,0,0,NA
"362",3,1,13,"5","1","4",1,4,1,1,363,5,5,7,2,8,0,0,NA
"363",3,1,14,"3","2","2",0,0,2,1,639,3,10,5,0,0,0,0,NA
"364",3,1,15,"1","1","2",2,1,1,1,1242,1,7,1,0,0,0,0,NA
"365",3,1,16,"3","2","2",0,0,2,1,491,3,9,7,0,0,0,0,NA
"366",3,1,17,"5","1","6",2,5,1,1,1493,8,5,8,9,7,2,6,NA
"367",3,1,18,"5","2","2",0,0,2,1,620,9,2,6,0,0,0,0,NA
"368",3,1,19,"5","2","6",0,0,2,1,1025,9,2,6,5,8,10,7,NA
"369",3,1,20,"2","1","6",5,2,1,1,1366,2,7,8,6,10,2,5,NA
"370",3,1,21,"4","2","6",0,0,2,1,780,4,7,6,2,9,10,5,NA
"371",3,1,22,"5","1","6",3,4,1,1,1083,7,5,8,7,9,2,10,NA
"372",3,1,23,"3","2","2",0,0,2,1,420,3,6,7,0,0,0,0,NA
"373",3,1,24,"5","1","4",4,1,1,1,716,10,8,9,7,10,0,0,NA
"374",3,1,25,"2","1","6",6,1,1,1,830,2,10,7,8,9,6,2,NA
"375",3,2,1,"5","1","4",3,2,1,1,957,7,2,8,7,9,0,0,NA
"376",3,2,2,"3","2","4",0,0,2,1,656,3,7,10,5,2,0,0,NA
"377",3,2,3,"5","2","4",0,0,2,1,911,8,2,7,10,6,0,0,NA
"378",3,2,4,"3","2","6",0,0,2,1,584,3,7,10,5,6,9,2,NA
"379",3,2,5,"5","2","6",0,0,1,0,847,9,8,6,2,10,7,5,NA
"380",3,2,6,"1","1","6",2,5,1,1,747,1,6,1,9,10,7,5,NA
"381",3,2,7,"5","1","2",1,2,1,1,529,6,6,2,0,0,0,0,NA
"382",3,2,8,"5","2","6",0,0,1,0,570,6,9,7,10,5,2,8,NA
"383",3,2,9,"3","2","2",0,0,2,1,471,3,8,6,0,0,0,0,NA
"384",3,2,10,"3","2","2",0,0,2,1,440,3,5,2,0,0,0,0,NA
"385",3,2,11,"2","1","6",5,2,1,1,581,2,9,6,5,8,2,7,NA
"386",3,2,12,"5","2","4",0,0,2,1,406,9,2,10,8,5,0,0,NA
"387",3,2,13,"5","1","2",1,2,1,1,553,7,7,10,0,0,0,0,NA
"388",3,2,14,"3","2","4",0,0,2,1,541,3,6,2,5,8,0,0,NA
"389",3,2,15,"5","2","2",0,0,2,1,427,6,10,8,0,0,0,0,NA
"390",3,2,16,"3","2","4",0,0,2,1,387,3,10,6,7,9,0,0,NA
"391",3,2,17,"5","1","6",1,6,1,1,753,8,8,9,6,5,2,10,NA
"392",3,2,18,"3","2","2",0,0,2,1,518,3,2,7,0,0,0,0,NA
"393",3,2,19,"5","1","4",3,2,1,1,555,5,7,2,5,10,0,0,NA
"394",3,2,20,"2","1","4",4,1,1,1,414,2,5,7,8,2,0,0,NA
"395",3,2,21,"4","2","6",0,0,2,1,508,4,8,5,10,2,9,7,NA
"396",3,2,22,"5","1","6",4,3,1,1,646,7,8,5,2,7,6,9,NA
"397",3,2,23,"2","1","2",1,2,1,1,496,2,2,7,0,0,0,0,NA
"398",3,2,24,"1","1","2",1,2,1,1,384,1,1,5,0,0,0,0,NA
"399",3,2,25,"5","1","2",2,1,1,1,420,7,10,7,0,0,0,0,NA
"400",3,3,1,"5","1","4",1,4,1,1,696,8,8,6,5,2,0,0,NA
"401",3,3,2,"5","1","4",3,2,1,1,468,7,10,9,7,5,0,0,NA
"402",3,3,3,"4","2","2",0,0,2,1,486,4,5,2,0,0,0,0,NA
"403",3,3,4,"2","1","6",4,3,1,1,609,2,7,9,6,2,8,5,NA
"404",3,3,5,"3","2","6",0,0,2,1,518,3,10,2,5,6,8,7,NA
"405",3,3,6,"5","1","2",1,2,1,1,438,10,10,6,0,0,0,0,NA
"406",3,3,7,"5","1","6",2,5,1,1,419,5,7,5,9,6,2,8,NA
"407",3,3,8,"5","2","2",0,0,2,1,422,6,9,2,0,0,0,0,NA
"408",3,3,9,"2","1","4",2,3,1,1,462,2,6,2,10,7,0,0,NA
"409",3,3,10,"5","2","6",0,0,1,0,489,7,9,8,6,2,10,5,NA
"410",3,3,11,"3","2","2",0,0,2,1,425,3,8,6,0,0,0,0,NA
"411",3,3,12,"2","1","6",2,5,1,1,551,2,9,2,10,6,5,7,NA
"412",3,3,13,"2","1","2",2,1,1,1,485,2,7,2,0,0,0,0,NA
"413",3,3,14,"2","1","4",2,3,1,1,378,2,10,2,5,6,0,0,NA
"414",3,3,15,"3","2","4",0,0,2,1,484,3,8,7,6,2,0,0,NA
"415",3,3,16,"3","2","2",0,0,2,1,373,3,7,10,0,0,0,0,NA
"416",3,3,17,"5","2","2",0,0,2,1,410,10,6,2,0,0,0,0,NA
"417",3,3,18,"5","1","2",2,1,1,1,765,8,9,8,0,0,0,0,NA
"418",3,3,19,"4","2","6",0,0,2,1,493,4,2,7,5,8,6,9,NA
"419",3,3,20,"1","1","6",3,4,1,1,583,1,5,8,1,9,7,10,NA
"420",3,3,21,"3","2","4",0,0,2,1,457,3,8,10,5,2,0,0,NA
"421",3,3,22,"5","2","2",0,0,2,1,411,6,5,10,0,0,0,0,NA
"422",3,3,23,"3","2","6",0,0,2,1,441,3,8,5,9,6,10,2,NA
"423",3,3,24,"5","2","2",0,0,2,1,379,5,7,6,0,0,0,0,NA
"424",3,3,25,"3","2","6",0,0,2,1,537,3,8,10,2,5,9,6,NA
"425",3,4,1,"3","2","6",0,0,2,1,444,3,6,10,2,5,9,8,NA
"426",3,4,2,"5","2","6",0,0,2,1,952,8,2,10,6,5,9,7,NA
"427",3,4,3,"3","2","4",0,0,2,1,379,3,2,6,7,8,0,0,NA
"428",3,4,4,"3","2","2",0,0,2,1,352,3,10,2,0,0,0,0,NA
"429",3,4,5,"5","2","2",0,0,2,1,326,10,2,9,0,0,0,0,NA
"430",3,4,6,"5","2","4",0,0,2,1,434,10,5,7,2,6,0,0,NA
"431",3,4,7,"5","1","2",1,2,1,1,516,10,10,5,0,0,0,0,NA
"432",3,4,8,"5","2","2",0,0,2,1,403,8,2,10,0,0,0,0,NA
"433",3,4,9,"5","2","4",0,0,2,1,396,10,5,6,2,8,0,0,NA
"434",3,4,10,"5","2","6",0,0,1,0,425,5,6,2,9,7,10,8,NA
"435",3,4,11,"5","1","4",3,2,1,1,802,9,5,1,9,10,0,0,NA
"436",3,4,12,"5","2","4",0,0,2,1,715,9,5,2,7,10,0,0,NA
"437",3,4,13,"5","2","4",0,0,2,1,487,9,2,6,10,7,0,0,NA
"438",3,4,14,"5","2","4",0,0,2,1,893,5,8,9,2,6,0,0,NA
"439",3,4,15,"5","1","6",4,3,1,1,647,10,7,5,2,10,8,9,NA
"440",3,4,16,"1","1","2",1,2,1,1,497,1,1,9,0,0,0,0,NA
"441",3,4,17,"1","1","4",4,1,1,1,502,1,8,7,5,1,0,0,NA
"442",3,4,18,"2","1","2",1,2,1,1,534,2,2,9,0,0,0,0,NA
"443",3,4,19,"5","2","4",0,0,2,1,586,7,6,5,8,10,0,0,NA
"444",3,4,20,"1","1","4",2,3,1,1,428,1,8,1,5,7,0,0,NA
"445",3,4,21,"1","1","6",2,5,1,1,632,1,10,1,9,6,7,8,NA
"446",3,4,22,"2","1","4",1,4,1,1,359,2,2,10,9,6,0,0,NA
"447",3,4,23,"5","2","2",0,0,2,1,381,8,7,6,0,0,0,0,NA
"448",3,4,24,"5","2","6",0,0,2,1,956,8,5,2,9,6,10,7,NA
"449",3,4,25,"5","2","4",0,0,2,1,607,6,2,8,5,9,0,0,NA
"450",3,5,1,"3","2","2",0,0,2,1,390,3,7,5,0,0,0,0,NA
"451",3,5,2,"5","1","4",2,3,1,1,640,9,6,9,7,2,0,0,NA
"452",3,5,3,"1","1","4",3,2,1,1,464,1,5,8,1,9,0,0,NA
"453",3,5,4,"1","1","6",5,2,1,1,524,1,7,5,9,8,1,6,NA
"454",3,5,5,"5","1","4",1,4,1,1,576,9,9,8,2,7,0,0,NA
"455",3,5,6,"3","2","6",0,0,2,1,486,3,2,9,7,6,8,5,NA
"456",3,5,7,"3","2","4",0,0,2,1,444,3,2,6,10,9,0,0,NA
"457",3,5,8,"1","1","4",2,3,1,1,787,1,6,1,7,8,0,0,NA
"458",3,5,9,"5","1","2",2,1,1,1,376,8,10,8,0,0,0,0,NA
"459",3,5,10,"5","1","2",2,1,1,1,365,8,10,8,0,0,0,0,NA
"460",3,5,11,"5","1","6",5,2,1,1,540,9,5,7,2,10,9,6,NA
"461",3,5,12,"5","1","2",1,2,1,1,363,6,6,1,0,0,0,0,NA
"462",3,5,13,"3","2","6",0,0,2,1,458,3,6,2,5,7,8,10,NA
"463",3,5,14,"5","1","4",2,3,1,1,418,6,10,6,2,8,0,0,NA
"464",3,5,15,"5","1","2",1,2,1,1,357,8,8,2,0,0,0,0,NA
"465",3,5,16,"5","1","4",3,2,1,1,592,7,2,6,7,9,0,0,NA
"466",3,5,17,"2","1","4",4,1,1,1,434,2,8,7,9,2,0,0,NA
"467",3,5,18,"5","2","2",0,0,2,1,612,6,7,10,0,0,0,0,NA
"468",3,5,19,"5","2","6",0,0,2,1,665,8,5,7,2,10,9,6,NA
"469",3,5,20,"2","1","4",1,4,1,1,648,2,2,6,9,7,0,0,NA
"470",3,5,21,"3","2","2",0,0,2,1,337,3,7,6,0,0,0,0,NA
"471",3,5,22,"2","1","4",4,1,1,1,509,2,6,8,10,2,0,0,NA
"472",3,5,23,"5","2","6",0,0,2,1,807,7,10,2,9,5,8,6,NA
"473",3,5,24,"1","1","2",2,1,1,1,475,1,10,1,0,0,0,0,NA
"474",3,5,25,"3","2","4",0,0,2,1,497,3,2,5,6,9,0,0,NA
"475",3,6,1,"1","1","4",3,2,1,1,421,1,6,9,1,5,0,0,NA
"476",3,6,2,"5","1","2",1,2,1,1,472,8,8,2,0,0,0,0,NA
"477",3,6,3,"5","1","4",3,2,1,1,1071,7,2,8,7,10,0,0,NA
"478",3,6,4,"5","1","6",6,1,1,1,610,6,8,9,7,2,10,6,NA
"479",3,6,5,"4","2","2",0,0,2,1,414,4,9,2,0,0,0,0,NA
"480",3,6,6,"1","1","4",2,3,1,1,486,1,8,1,9,6,0,0,NA
"481",3,6,7,"2","1","4",1,4,1,1,396,2,2,7,10,6,0,0,NA
"482",3,6,8,"5","2","6",0,0,2,1,682,9,5,10,2,7,6,8,NA
"483",3,6,9,"5","1","2",1,2,1,1,355,6,6,2,0,0,0,0,NA
"484",3,6,10,"5","1","2",2,1,1,1,616,7,9,7,0,0,0,0,NA
"485",3,6,11,"5","1","4",3,2,1,1,360,6,5,10,6,2,0,0,NA
"486",3,6,12,"1","1","4",1,4,1,1,498,1,1,6,5,8,0,0,NA
"487",3,6,13,"5","2","4",0,0,2,1,647,6,7,8,10,2,0,0,NA
"488",3,6,14,"5","1","4",1,4,1,1,582,9,9,8,6,2,0,0,NA
"489",3,6,15,"2","1","2",2,1,1,1,435,2,9,2,0,0,0,0,NA
"490",3,6,16,"5","2","4",0,0,2,1,602,7,8,9,6,1,0,0,NA
"491",3,6,17,"5","1","2",2,1,1,1,550,5,10,5,0,0,0,0,NA
"492",3,6,18,"3","2","6",0,0,2,1,430,3,10,6,5,7,2,9,NA
"493",3,6,19,"4","2","4",0,0,2,1,533,4,8,2,7,10,0,0,NA
"494",3,6,20,"5","1","4",4,1,1,1,649,7,9,8,6,7,0,0,NA
"495",3,6,21,"1","1","6",5,2,1,1,589,1,7,10,9,6,1,8,NA
"496",3,6,22,"5","1","4",4,1,1,1,542,10,2,6,7,10,0,0,NA
"497",3,6,23,"5","2","6",0,0,2,1,599,7,5,9,10,6,2,8,NA
"498",3,6,24,"5","2","2",0,0,2,1,547,5,7,2,0,0,0,0,NA
"499",3,6,25,"2","1","2",1,2,1,1,465,2,2,6,0,0,0,0,NA
"500",3,7,1,"5","1","6",6,1,1,1,346,9,6,5,2,8,10,9,NA
"501",3,7,2,"5","1","4",1,4,1,1,484,5,5,7,2,8,0,0,NA
"502",3,7,3,"4","2","2",0,0,2,1,340,4,2,8,0,0,0,0,NA
"503",3,7,4,"5","2","4",0,0,2,1,368,7,6,10,8,2,0,0,NA
"504",3,7,5,"5","1","2",1,2,1,1,645,7,7,10,0,0,0,0,NA
"505",3,7,6,"5","1","6",3,4,1,1,665,9,2,10,9,6,7,8,NA
"506",3,7,7,"5","2","4",0,0,2,1,376,7,2,8,9,10,0,0,NA
"507",3,7,8,"5","1","2",2,1,1,1,397,10,2,10,0,0,0,0,NA
"508",3,7,9,"1","1","2",1,2,1,1,481,1,1,9,0,0,0,0,NA
"509",3,7,10,"2","1","4",3,2,1,1,534,2,5,7,2,8,0,0,NA
"510",3,7,11,"5","1","4",4,1,1,1,378,9,2,5,6,9,0,0,NA
"511",3,7,12,"5","2","2",0,0,2,1,399,5,8,1,0,0,0,0,NA
"512",3,7,13,"5","2","4",0,0,2,1,520,7,6,2,5,8,0,0,NA
"513",3,7,14,"5","2","2",0,0,2,1,375,6,8,2,0,0,0,0,NA
"514",3,7,15,"5","1","2",2,1,1,1,620,5,2,5,0,0,0,0,NA
"515",3,7,16,"5","1","2",2,1,1,1,359,6,9,6,0,0,0,0,NA
"516",3,7,17,"5","2","4",0,0,2,1,466,8,5,6,9,10,0,0,NA
"517",3,7,18,"5","1","2",2,1,1,1,547,8,10,8,0,0,0,0,NA
"518",3,7,19,"3","2","2",0,0,2,1,417,3,9,8,0,0,0,0,NA
"519",3,7,20,"5","2","4",0,0,2,1,393,7,5,9,10,2,0,0,NA
"520",3,7,21,"5","2","6",0,0,2,1,408,7,10,6,8,5,2,9,NA
"521",3,7,22,"5","1","4",2,3,1,1,1713,7,2,7,8,9,0,0,NA
"522",3,7,23,"5","1","4",3,2,1,1,485,8,5,9,8,2,0,0,NA
"523",3,7,24,"5","2","2",0,0,2,1,502,8,2,6,0,0,0,0,NA
"524",3,7,25,"2","1","4",3,2,1,1,539,2,5,10,2,6,0,0,1
"525",4,1,1,"5","2","4",0,0,2,1,1901,5,2,10,7,6,0,0,NA
"526",4,1,2,"5","1","4",2,3,1,1,809,7,2,7,10,8,0,0,NA
"527",4,1,3,"1","1","4",3,2,1,1,1727,1,9,7,1,5,0,0,NA
"528",4,1,4,"5","1","2",1,2,1,1,3582,8,8,2,0,0,0,0,NA
"529",4,1,5,"2","1","4",1,4,2,0,808,2,2,6,10,7,0,0,NA
"530",4,1,6,"5","1","4",2,3,1,1,1666,6,8,6,10,7,0,0,NA
"531",4,1,7,"5","1","6",3,4,1,1,1006,10,6,8,10,5,2,9,NA
"532",4,1,8,"5","1","4",1,4,1,1,959,7,7,2,5,10,0,0,NA
"533",4,1,9,"2","1","2",1,2,1,1,2157,2,2,7,0,0,0,0,NA
"534",4,1,10,"5","1","2",2,1,1,1,763,8,9,8,0,0,0,0,NA
"535",4,1,11,"5","2","4",0,0,2,1,582,5,8,6,9,2,0,0,NA
"536",4,1,12,"5","1","4",2,3,1,1,936,7,8,7,6,9,0,0,NA
"537",4,1,13,"3","2","6",0,0,2,1,672,3,5,6,7,10,2,8,NA
"538",4,1,14,"3","2","6",0,0,2,1,676,3,5,7,9,10,6,2,NA
"539",4,1,15,"3","2","2",0,0,2,1,541,3,8,7,0,0,0,0,NA
"540",4,1,16,"5","1","2",1,2,1,1,620,7,7,5,0,0,0,0,NA
"541",4,1,17,"1","1","4",3,2,1,1,909,1,7,9,1,5,0,0,NA
"542",4,1,18,"2","1","4",4,1,1,1,802,2,8,6,9,2,0,0,NA
"543",4,1,19,"5","2","2",0,0,2,1,742,9,7,2,0,0,0,0,NA
"544",4,1,20,"3","2","2",0,0,2,1,701,3,2,10,0,0,0,0,NA
"545",4,1,21,"5","1","2",2,1,1,1,645,5,2,5,0,0,0,0,NA
"546",4,1,22,"2","1","2",2,1,1,1,623,2,6,2,0,0,0,0,NA
"547",4,1,23,"2","1","4",2,3,1,1,720,2,7,2,8,10,0,0,NA
"548",4,1,24,"1","1","4",4,1,2,0,653,1,7,9,10,1,0,0,NA
"549",4,1,25,"5","2","4",0,0,2,1,716,8,7,2,10,5,0,0,NA
"550",4,2,1,"1","1","2",1,2,1,1,892,1,1,5,0,0,0,0,NA
"551",4,2,2,"3","2","6",0,0,2,1,616,3,9,8,5,6,2,10,NA
"552",4,2,3,"5","2","2",0,0,2,1,1251,5,8,6,0,0,0,0,NA
"553",4,2,4,"3","2","4",0,0,2,1,970,3,8,7,2,5,0,0,NA
"554",4,2,5,"3","2","4",0,0,2,1,621,3,9,5,2,7,0,0,NA
"555",4,2,6,"5","2","2",0,0,1,0,520,10,8,2,0,0,0,0,NA
"556",4,2,7,"5","1","2",1,2,1,1,967,10,10,2,0,0,0,0,NA
"557",4,2,8,"1","1","6",1,6,1,1,799,1,1,6,10,8,7,9,NA
"558",4,2,9,"5","1","6",3,4,1,1,1038,8,7,9,8,5,6,2,NA
"559",4,2,10,"5","2","2",0,0,2,1,824,6,10,5,0,0,0,0,NA
"560",4,2,11,"5","2","6",0,0,1,0,1142,10,5,9,2,6,8,7,NA
"561",4,2,12,"5","1","4",3,2,1,1,786,10,2,7,10,6,0,0,NA
"562",4,2,13,"5","1","2",1,2,1,1,677,6,6,10,0,0,0,0,NA
"563",4,2,14,"5","2","4",0,0,2,1,1044,7,8,5,10,2,0,0,NA
"564",4,2,15,"5","1","4",4,1,1,1,836,7,8,10,2,7,0,0,NA
"565",4,2,16,"1","1","6",3,4,2,0,753,1,6,7,1,9,10,5,NA
"566",4,2,17,"5","2","4",0,0,1,0,1053,5,7,2,6,9,0,0,NA
"567",4,2,18,"5","2","4",0,0,2,1,1196,7,2,5,6,9,0,0,NA
"568",4,2,19,"2","1","4",4,1,2,0,1173,2,9,10,5,2,0,0,NA
"569",4,2,20,"5","1","4",3,2,1,1,928,5,2,6,5,8,0,0,NA
"570",4,2,21,"1","1","2",2,1,1,1,975,1,7,1,0,0,0,0,NA
"571",4,2,22,"5","2","6",0,0,2,1,999,8,2,7,9,6,5,10,NA
"572",4,2,23,"4","2","4",0,0,2,1,1223,4,2,10,9,8,0,0,NA
"573",4,2,24,"3","2","2",0,0,2,1,778,3,5,9,0,0,0,0,NA
"574",4,2,25,"5","1","2",2,1,1,1,911,9,2,9,0,0,0,0,NA
"575",4,3,1,"5","1","2",1,2,1,1,928,9,9,8,0,0,0,0,NA
"576",4,3,2,"5","1","2",2,1,1,1,815,5,8,5,0,0,0,0,NA
"577",4,3,3,"5","1","4",2,3,1,1,1175,10,7,10,6,2,0,0,NA
"578",4,3,4,"5","1","4",2,3,1,1,722,5,10,5,8,9,0,0,NA
"579",4,3,5,"5","2","4",0,0,2,1,1775,5,2,9,6,7,0,0,NA
"580",4,3,6,"3","2","6",0,0,2,1,806,3,5,2,10,6,9,7,NA
"581",4,3,7,"5","2","4",0,0,2,1,1183,6,8,5,2,9,0,0,NA
"582",4,3,8,"4","2","4",0,0,2,1,873,4,7,6,10,1,0,0,NA
"583",4,3,9,"2","1","4",2,3,1,1,1232,2,7,2,6,5,0,0,NA
"584",4,3,10,"2","1","4",4,1,1,1,1064,2,6,10,7,2,0,0,NA
"585",4,3,11,"4","2","4",0,0,2,1,774,4,2,10,5,6,0,0,NA
"586",4,3,12,"5","1","6",4,3,1,1,1222,6,5,2,8,6,7,9,NA
"587",4,3,13,"5","1","4",4,1,1,1,1391,8,7,2,5,8,0,0,NA
"588",4,3,14,"2","1","6",6,1,1,1,918,2,10,9,5,7,6,2,NA
"589",4,3,15,"5","2","4",0,0,1,0,1339,5,10,9,8,7,0,0,NA
"590",4,3,16,"5","1","6",5,2,1,1,915,7,8,6,5,10,7,2,NA
"591",4,3,17,"5","1","6",4,3,1,1,1421,6,2,5,7,6,8,9,NA
"592",4,3,18,"5","1","4",4,1,1,1,749,6,7,2,8,6,0,0,NA
"593",4,3,19,"5","2","4",0,0,2,1,2009,6,5,2,7,8,0,0,NA
"594",4,3,20,"5","1","2",1,2,1,1,893,9,9,2,0,0,0,0,NA
"595",4,3,21,"3","2","6",0,0,2,1,808,3,2,6,9,10,7,8,NA
"596",4,3,22,"5","2","2",0,0,2,1,1179,9,6,7,0,0,0,0,NA
"597",4,3,23,"5","1","4",3,2,1,1,1190,8,7,9,8,6,0,0,NA
"598",4,3,24,"5","1","2",2,1,1,1,1258,7,5,7,0,0,0,0,NA
"599",4,3,25,"4","2","4",0,0,2,1,946,4,8,7,10,6,0,0,NA
"600",4,4,1,"5","1","2",1,2,1,1,876,8,8,7,0,0,0,0,NA
"601",4,4,2,"5","1","6",5,2,1,1,808,5,9,7,2,8,5,10,NA
"602",4,4,3,"5","2","6",0,0,1,0,1191,10,2,8,5,9,6,7,NA
"603",4,4,4,"5","1","2",1,2,1,1,619,5,5,9,0,0,0,0,NA
"604",4,4,5,"5","1","6",3,4,1,1,1233,7,6,2,7,8,9,10,NA
"605",4,4,6,"5","1","4",1,4,1,1,969,5,5,6,2,9,0,0,NA
"606",4,4,7,"5","2","2",0,0,2,1,1206,5,2,7,0,0,0,0,NA
"607",4,4,8,"4","2","2",0,0,2,1,890,4,9,10,0,0,0,0,NA
"608",4,4,9,"3","2","4",0,0,2,1,736,3,8,2,5,9,0,0,NA
"609",4,4,10,"1","1","2",1,2,1,1,807,1,1,7,0,0,0,0,NA
"610",4,4,11,"5","1","4",4,1,1,1,1440,5,7,6,2,5,0,0,NA
"611",4,4,12,"5","1","6",4,3,1,1,902,7,8,2,9,7,10,5,NA
"612",4,4,13,"5","1","4",1,4,1,1,1131,8,8,2,9,7,0,0,NA
"613",4,4,14,"2","1","2",1,2,1,1,593,2,2,9,0,0,0,0,NA
"614",4,4,15,"3","2","6",0,0,2,1,537,3,8,6,10,9,2,5,NA
"615",4,4,16,"3","2","4",0,0,2,1,1693,3,8,10,7,2,0,0,NA
"616",4,4,17,"4","2","4",0,0,2,1,866,4,8,10,2,7,0,0,NA
"617",4,4,18,"4","2","6",0,0,2,1,622,4,9,5,6,10,8,2,NA
"618",4,4,19,"2","1","4",1,4,1,1,1135,2,2,8,10,5,0,0,NA
"619",4,4,20,"5","1","2",1,2,1,1,533,7,7,6,0,0,0,0,NA
"620",4,4,21,"5","1","4",2,3,2,0,1305,9,5,9,2,8,0,0,NA
"621",4,4,22,"5","1","4",4,1,1,1,655,10,9,5,2,10,0,0,NA
"622",4,4,23,"1","1","6",4,3,1,1,995,1,7,9,10,1,8,6,NA
"623",4,4,24,"2","1","2",2,1,1,1,640,2,9,2,0,0,0,0,NA
"624",4,4,25,"3","2","4",0,0,2,1,640,3,8,2,5,10,0,0,NA
"625",4,5,1,"5","2","4",0,0,2,1,1211,7,2,8,9,6,0,0,NA
"626",4,5,2,"5","1","2",1,2,1,1,655,5,5,2,0,0,0,0,NA
"627",4,5,3,"5","1","6",3,4,1,1,1460,8,2,7,8,6,9,5,NA
"628",4,5,4,"5","1","6",4,3,1,1,1144,8,5,7,2,8,10,9,NA
"629",4,5,5,"5","1","4",4,1,1,1,676,9,10,2,5,9,0,0,NA
"630",4,5,6,"3","2","6",0,0,2,1,648,3,7,8,9,2,5,6,NA
"631",4,5,7,"5","2","4",0,0,2,1,1032,5,2,7,6,8,0,0,NA
"632",4,5,8,"4","2","4",0,0,2,1,679,4,9,5,10,2,0,0,NA
"633",4,5,9,"5","1","6",5,2,1,1,1627,8,6,2,5,10,8,7,NA
"634",4,5,10,"3","2","6",0,0,2,1,601,3,2,5,9,7,10,8,NA
"635",4,5,11,"5","2","2",0,0,1,0,645,10,9,7,0,0,0,0,NA
"636",4,5,12,"5","2","2",0,0,2,1,736,8,10,7,0,0,0,0,NA
"637",4,5,13,"5","1","4",1,4,1,1,1451,10,10,6,2,9,0,0,NA
"638",4,5,14,"5","1","6",5,2,1,1,928,9,7,2,5,8,9,6,NA
"639",4,5,15,"3","2","2",0,0,2,1,607,3,2,6,0,0,0,0,NA
"640",4,5,16,"3","2","4",0,0,2,1,881,3,2,9,7,10,0,0,NA
"641",4,5,17,"3","2","6",0,0,2,1,652,3,9,10,5,2,6,8,NA
"642",4,5,18,"5","1","6",2,5,1,1,705,5,1,5,10,6,7,9,NA
"643",4,5,19,"2","1","6",1,6,1,1,579,2,2,5,9,10,8,7,NA
"644",4,5,20,"5","2","2",0,0,2,1,976,8,9,6,0,0,0,0,NA
"645",4,5,21,"5","2","2",0,0,2,1,1342,9,2,6,0,0,0,0,NA
"646",4,5,22,"5","2","2",0,0,2,1,780,6,8,2,0,0,0,0,NA
"647",4,5,23,"4","2","6",0,0,2,1,684,4,2,6,9,8,5,10,NA
"648",4,5,24,"5","1","6",2,5,1,1,799,8,2,8,7,9,10,6,NA
"649",4,5,25,"1","1","2",1,2,1,1,691,1,1,5,0,0,0,0,NA
"650",4,6,1,"5","1","4",1,4,1,1,827,6,6,9,8,2,0,0,NA
"651",4,6,2,"5","1","2",2,1,1,1,702,10,2,10,0,0,0,0,NA
"652",4,6,3,"5","1","4",3,2,1,1,731,7,9,6,7,2,0,0,NA
"653",4,6,4,"4","2","4",0,0,2,1,1079,4,5,8,2,7,0,0,NA
"654",4,6,5,"3","2","4",0,0,2,1,742,3,8,2,6,7,0,0,NA
"655",4,6,6,"1","1","2",2,1,1,1,732,1,6,1,0,0,0,0,NA
"656",4,6,7,"5","1","2",1,2,1,1,531,9,9,5,0,0,0,0,NA
"657",4,6,8,"5","2","2",0,0,2,1,786,6,7,5,0,0,0,0,NA
"658",4,6,9,"5","1","4",2,3,1,1,908,8,2,8,5,10,0,0,NA
"659",4,6,10,"5","1","6",3,4,1,1,614,10,6,8,10,2,9,5,NA
"660",4,6,11,"5","1","4",1,4,1,1,599,10,10,9,6,2,0,0,NA
"661",4,6,12,"3","2","2",0,0,2,1,723,3,2,6,0,0,0,0,NA
"662",4,6,13,"2","1","4",2,3,1,1,879,2,6,2,7,5,0,0,NA
"663",4,6,14,"5","1","6",4,3,1,1,475,5,6,10,2,5,8,9,NA
"664",4,6,15,"5","2","6",0,0,1,0,343,5,6,10,7,2,9,8,NA
"665",4,6,16,"5","2","4",0,0,2,1,1171,7,9,8,2,6,0,0,NA
"666",4,6,17,"2","1","4",3,2,2,0,973,2,10,5,2,8,0,0,NA
"667",4,6,18,"2","1","6",5,2,1,1,821,2,7,10,5,6,2,8,NA
"668",4,6,19,"1","1","6",6,1,1,1,850,1,9,6,10,8,7,1,NA
"669",4,6,20,"5","2","4",0,0,2,1,1082,5,9,6,7,2,0,0,NA
"670",4,6,21,"2","1","4",4,1,1,1,1080,2,7,5,10,2,0,0,NA
"671",4,6,22,"2","1","2",1,2,1,1,880,2,2,7,0,0,0,0,NA
"672",4,6,23,"1","1","6",6,1,1,1,684,1,5,10,6,7,9,1,NA
"673",4,6,24,"5","2","2",0,0,2,1,788,10,8,6,0,0,0,0,NA
"674",4,6,25,"1","1","2",2,1,1,1,585,1,6,1,0,0,0,0,NA
"675",4,7,1,"1","1","2",2,1,1,1,561,1,5,1,0,0,0,0,NA
"676",4,7,2,"4","2","6",0,0,2,1,586,4,5,10,2,9,8,7,NA
"677",4,7,3,"5","1","4",3,2,1,1,1484,6,9,7,6,5,0,0,NA
"678",4,7,4,"3","2","6",0,0,2,1,751,3,2,5,10,8,9,6,NA
"679",4,7,5,"1","1","2",1,2,1,1,613,1,1,7,0,0,0,0,NA
"680",4,7,6,"4","2","2",0,0,2,1,592,4,10,2,0,0,0,0,NA
"681",4,7,7,"4","2","4",0,0,2,1,1154,4,7,2,6,5,0,0,NA
"682",4,7,8,"5","1","6",6,1,1,1,819,8,7,2,9,10,6,8,NA
"683",4,7,9,"3","2","2",0,0,2,1,534,3,8,9,0,0,0,0,NA
"684",4,7,10,"5","1","4",1,4,1,1,618,5,5,2,7,8,0,0,NA
"685",4,7,11,"5","1","2",1,2,2,0,1573,6,6,8,0,0,0,0,NA
"686",4,7,12,"5","1","2",2,1,1,1,827,6,2,6,0,0,0,0,NA
"687",4,7,13,"5","1","6",5,2,1,1,648,9,5,6,7,8,9,2,NA
"688",4,7,14,"2","1","6",1,6,1,1,812,2,2,7,5,9,8,10,NA
"689",4,7,15,"5","2","6",0,0,1,0,955,10,7,9,6,8,5,2,NA
"690",4,7,16,"5","1","2",1,2,1,1,825,10,10,5,0,0,0,0,NA
"691",4,7,17,"2","1","6",4,3,2,0,871,2,5,8,10,2,7,9,NA
"692",4,7,18,"5","1","6",3,4,1,1,755,10,5,7,10,1,8,6,NA
"693",4,7,19,"5","2","4",0,0,1,0,573,10,5,6,8,2,0,0,NA
"694",4,7,20,"5","1","2",1,2,1,1,506,7,7,9,0,0,0,0,NA
"695",4,7,21,"4","2","6",0,0,2,1,628,4,10,9,2,5,8,7,NA
"696",4,7,22,"5","1","4",4,1,1,1,724,10,2,8,6,10,0,0,NA
"697",4,7,23,"5","2","4",0,0,2,1,1153,6,10,2,8,7,0,0,NA
"698",4,7,24,"5","1","2",1,2,1,1,743,10,10,6,0,0,0,0,NA
"699",4,7,25,"5","2","6",0,0,2,1,1272,6,2,5,10,7,8,9,3
"700",5,1,1,"3","2","4",0,0,2,1,5220,3,6,5,8,2,0,0,NA
"701",5,1,2,"5","2","2",0,0,2,1,659,9,10,5,0,0,0,0,NA
"702",5,1,3,"1","1","4",2,3,1,1,2408,1,5,1,6,9,0,0,NA
"703",5,1,4,"5","1","6",1,6,1,1,1166,6,6,2,7,8,9,5,NA
"704",5,1,5,"5","1","6",2,5,1,1,1556,10,9,10,7,5,2,8,NA
"705",5,1,6,"2","1","2",1,2,1,1,1674,2,2,5,0,0,0,0,NA
"706",5,1,7,"5","1","4",1,4,1,1,633,9,9,10,7,2,0,0,NA
"707",5,1,8,"5","1","6",4,3,1,1,557,8,2,10,9,8,5,7,NA
"708",5,1,9,"2","1","4",1,4,1,1,528,2,2,9,6,7,0,0,NA
"709",5,1,10,"5","1","6",6,1,1,1,474,8,9,7,2,5,6,8,NA
"710",5,1,11,"4","2","4",0,0,2,1,848,4,2,5,6,9,0,0,NA
"711",5,1,12,"2","1","6",6,1,1,1,467,2,7,6,8,5,10,2,NA
"712",5,1,13,"2","1","2",1,2,1,1,900,2,2,9,0,0,0,0,NA
"713",5,1,14,"5","1","2",1,2,1,1,1004,6,6,5,0,0,0,0,NA
"714",5,1,15,"1","1","2",1,2,1,1,639,1,1,7,0,0,0,0,NA
"715",5,1,16,"3","2","4",0,0,2,1,950,3,2,10,6,5,0,0,NA
"716",5,1,17,"3","2","6",0,0,1,0,1382,3,2,9,6,7,5,8,NA
"717",5,1,18,"5","2","4",0,0,2,1,766,10,6,8,2,9,0,0,NA
"718",5,1,19,"3","2","6",0,0,2,1,435,3,6,2,7,5,9,10,NA
"719",5,1,20,"5","1","4",4,1,1,1,1315,5,9,2,8,5,0,0,NA
"720",5,1,21,"5","1","4",1,4,1,1,1032,8,8,6,9,2,0,0,NA
"721",5,1,22,"5","1","6",6,1,1,1,692,6,8,2,10,7,5,6,NA
"722",5,1,23,"5","1","6",3,4,1,1,759,8,10,2,8,7,6,5,NA
"723",5,1,24,"1","1","6",1,6,1,1,1416,1,1,5,6,7,10,9,NA
"724",5,1,25,"1","1","4",2,3,1,1,1280,1,10,1,5,8,0,0,NA
"725",5,2,1,"5","2","2",0,0,2,1,839,9,2,5,0,0,0,0,NA
"726",5,2,2,"5","1","6",6,1,1,1,556,9,10,8,5,2,6,9,NA
"727",5,2,3,"5","2","2",0,0,2,1,666,8,9,6,0,0,0,0,NA
"728",5,2,4,"1","1","4",3,2,2,0,1023,1,10,9,1,7,0,0,NA
"729",5,2,5,"4","2","4",0,0,2,1,719,4,1,9,5,8,0,0,NA
"730",5,2,6,"5","1","6",6,1,1,1,983,7,6,8,5,10,2,7,NA
"731",5,2,7,"3","2","4",0,0,2,1,625,3,5,2,8,9,0,0,NA
"732",5,2,8,"5","2","6",0,0,2,1,965,6,7,8,5,10,9,2,NA
"733",5,2,9,"5","2","2",0,0,1,0,674,6,8,2,0,0,0,0,NA
"734",5,2,10,"1","1","4",4,1,1,1,665,1,7,6,8,1,0,0,NA
"735",5,2,11,"4","2","2",0,0,2,1,490,4,5,7,0,0,0,0,NA
"736",5,2,12,"2","1","4",3,2,2,0,1238,2,9,10,2,7,0,0,NA
"737",5,2,13,"3","2","2",0,0,2,1,593,3,9,10,0,0,0,0,NA
"738",5,2,14,"5","2","6",0,0,2,1,775,5,6,7,8,9,2,10,NA
"739",5,2,15,"5","2","6",0,0,2,1,996,10,9,5,6,8,7,2,NA
"740",5,2,16,"2","1","2",1,2,1,1,833,2,2,10,0,0,0,0,NA
"741",5,2,17,"4","2","6",0,0,2,1,589,4,2,6,5,9,8,10,NA
"742",5,2,18,"3","2","4",0,0,2,1,637,3,6,10,8,5,0,0,NA
"743",5,2,19,"1","1","2",1,2,1,1,1384,1,1,6,0,0,0,0,NA
"744",5,2,20,"5","1","6",5,2,1,1,934,5,6,9,10,2,5,7,NA
"745",5,2,21,"5","1","6",5,2,1,1,751,6,2,10,7,9,6,5,NA
"746",5,2,22,"1","1","6",5,2,1,1,654,1,5,10,7,8,1,6,NA
"747",5,2,23,"5","2","2",0,0,2,1,791,7,9,10,0,0,0,0,NA
"748",5,2,24,"1","1","2",1,2,1,1,724,1,1,9,0,0,0,0,NA
"749",5,2,25,"5","2","4",0,0,2,1,736,9,2,7,6,10,0,0,NA
"750",5,3,1,"3","2","6",0,0,2,1,631,3,8,5,9,7,10,2,NA
"751",5,3,2,"3","2","6",0,0,2,1,508,3,10,5,6,7,2,8,NA
"752",5,3,3,"5","1","6",2,5,1,1,564,7,9,7,10,6,5,2,NA
"753",5,3,4,"3","2","4",0,0,2,1,567,3,9,2,8,10,0,0,NA
"754",5,3,5,"1","1","6",2,5,1,1,622,1,6,1,10,8,7,5,NA
"755",5,3,6,"3","2","4",0,0,2,1,550,3,5,7,2,6,0,0,NA
"756",5,3,7,"1","1","2",2,1,1,1,476,1,6,1,0,0,0,0,NA
"757",5,3,8,"5","2","6",0,0,2,1,872,8,2,5,9,6,10,7,NA
"758",5,3,9,"5","2","2",0,0,2,1,648,6,5,9,0,0,0,0,NA
"759",5,3,10,"5","1","2",1,2,1,1,922,10,10,8,0,0,0,0,NA
"760",5,3,11,"5","1","2",2,1,1,1,761,8,5,8,0,0,0,0,NA
"761",5,3,12,"2","1","2",1,2,1,1,799,2,2,8,0,0,0,0,NA
"762",5,3,13,"3","2","4",0,0,2,1,703,3,2,7,5,6,0,0,NA
"763",5,3,14,"3","2","2",0,0,2,1,583,3,2,10,0,0,0,0,NA
"764",5,3,15,"5","2","4",0,0,2,1,831,6,2,9,8,7,0,0,NA
"765",5,3,16,"3","2","6",0,0,2,1,652,3,7,6,2,9,10,5,NA
"766",5,3,17,"5","2","2",0,0,2,1,653,9,10,6,0,0,0,0,NA
"767",5,3,18,"5","1","6",6,1,1,1,592,9,5,2,8,10,6,9,NA
"768",5,3,19,"5","2","2",0,0,2,1,2077,10,8,5,0,0,0,0,NA
"769",5,3,20,"5","1","6",1,6,1,1,696,9,9,6,10,2,7,5,NA
"770",5,3,21,"5","1","2",2,1,1,1,1216,10,1,10,0,0,0,0,NA
"771",5,3,22,"5","1","2",2,1,1,1,419,7,2,7,0,0,0,0,NA
"772",5,3,23,"5","2","6",0,0,2,1,695,6,10,2,8,9,5,7,NA
"773",5,3,24,"5","2","4",0,0,2,1,700,10,5,2,6,7,0,0,NA
"774",5,3,25,"5","1","2",2,1,1,1,532,7,6,7,0,0,0,0,NA
"775",5,4,1,"2","1","4",4,1,1,1,821,2,9,5,10,2,0,0,NA
"776",5,4,2,"3","2","6",0,0,2,1,553,3,9,2,5,7,6,10,NA
"777",5,4,3,"5","2","2",0,0,2,1,743,9,5,6,0,0,0,0,NA
"778",5,4,4,"5","1","2",2,1,1,1,436,9,2,9,0,0,0,0,NA
"779",5,4,5,"4","2","2",0,0,2,1,590,4,7,6,0,0,0,0,NA
"780",5,4,6,"2","1","4",4,1,1,1,446,2,6,9,5,2,0,0,NA
"781",5,4,7,"1","1","6",3,4,1,1,818,1,9,8,1,6,10,5,NA
"782",5,4,8,"5","1","4",2,3,2,0,968,8,2,8,10,5,0,0,NA
"783",5,4,9,"2","1","2",1,2,1,1,533,2,2,6,0,0,0,0,NA
"784",5,4,10,"5","1","4",3,2,2,0,978,9,2,6,9,8,0,0,NA
"785",5,4,11,"1","1","4",2,3,2,0,803,1,9,1,6,10,0,0,NA
"786",5,4,12,"4","2","2",0,0,2,1,551,4,2,6,0,0,0,0,NA
"787",5,4,13,"5","1","6",4,3,1,1,558,5,6,8,10,5,9,2,NA
"788",5,4,14,"5","1","4",3,2,1,1,425,5,9,8,5,10,0,0,NA
"789",5,4,15,"5","1","2",1,2,1,1,365,7,7,9,0,0,0,0,NA
"790",5,4,16,"3","2","2",0,0,2,1,731,3,2,7,0,0,0,0,NA
"791",5,4,17,"4","2","6",0,0,2,1,732,4,6,10,8,7,5,2,NA
"792",5,4,18,"5","1","6",6,1,1,1,1219,10,7,9,6,2,5,10,NA
"793",5,4,19,"1","1","4",2,3,2,0,891,1,9,1,8,6,0,0,NA
"794",5,4,20,"2","1","6",6,1,1,1,525,2,6,5,7,8,10,2,NA
"795",5,4,21,"5","2","6",0,0,2,1,727,6,7,5,8,10,9,2,NA
"796",5,4,22,"3","2","6",0,0,2,1,745,3,6,5,2,10,7,8,NA
"797",5,4,23,"3","2","2",0,0,2,1,558,3,5,6,0,0,0,0,NA
"798",5,4,24,"5","2","2",0,0,2,1,540,10,6,5,0,0,0,0,NA
"799",5,4,25,"5","2","4",0,0,2,1,639,6,10,9,2,5,0,0,NA
"800",5,5,1,"4","2","6",0,0,2,1,495,4,9,2,8,7,5,10,NA
"801",5,5,2,"4","2","2",0,0,2,1,543,4,8,9,0,0,0,0,NA
"802",5,5,3,"5","2","2",0,0,2,1,726,5,9,2,0,0,0,0,NA
"803",5,5,4,"5","1","6",2,5,2,0,552,6,7,6,10,2,9,5,NA
"804",5,5,5,"2","1","6",5,2,2,0,952,2,10,8,6,9,2,7,NA
"805",5,5,6,"5","2","4",0,0,2,1,569,8,9,2,10,5,0,0,NA
"806",5,5,7,"2","1","4",2,3,2,0,794,2,5,2,7,6,0,0,NA
"807",5,5,8,"2","1","6",6,1,1,1,504,2,7,9,10,5,8,2,NA
"808",5,5,9,"5","1","4",3,2,1,1,558,6,7,9,6,2,0,0,NA
"809",5,5,10,"5","1","4",2,3,2,0,505,5,8,5,2,10,0,0,NA
"810",5,5,11,"1","1","4",4,1,1,1,557,1,10,7,9,1,0,0,NA
"811",5,5,12,"1","1","2",2,1,1,1,1442,1,7,1,0,0,0,0,NA
"812",5,5,13,"3","2","6",0,0,2,1,638,3,9,10,5,2,7,8,NA
"813",5,5,14,"5","1","2",2,1,1,1,2856,5,2,5,0,0,0,0,NA
"814",5,5,15,"4","2","2",0,0,2,1,1090,4,5,9,0,0,0,0,NA
"815",5,5,16,"1","1","6",2,5,2,0,860,1,8,1,6,10,5,7,NA
"816",5,5,17,"1","1","4",1,4,2,0,780,1,1,5,6,10,0,0,NA
"817",5,5,18,"3","2","4",0,0,2,1,647,3,2,9,10,8,0,0,NA
"818",5,5,19,"5","1","6",1,6,1,1,627,9,9,2,5,8,7,10,NA
"819",5,5,20,"5","1","4",2,3,2,0,667,6,8,6,7,10,0,0,NA
"820",5,5,21,"3","2","6",0,0,2,1,487,3,5,6,8,2,7,9,NA
"821",5,5,22,"5","2","2",0,0,2,1,632,9,8,6,0,0,0,0,NA
"822",5,5,23,"5","1","6",5,2,2,0,782,5,9,2,6,8,5,7,NA
"823",5,5,24,"5","1","6",2,5,2,0,597,5,8,5,7,9,10,2,NA
"824",5,5,25,"5","1","2",1,2,1,1,834,9,9,10,0,0,0,0,NA
"825",5,6,1,"5","1","4",4,1,1,1,270,6,5,10,2,6,0,0,NA
"826",5,6,2,"1","1","6",5,2,1,1,1010,1,10,7,8,6,1,9,NA
"827",5,6,3,"5","2","2",0,0,2,1,509,8,5,6,0,0,0,0,NA
"828",5,6,4,"3","2","4",0,0,2,1,698,3,10,9,2,8,0,0,NA
"829",5,6,5,"5","2","6",0,0,2,1,1174,10,7,6,2,8,5,9,NA
"830",5,6,6,"5","2","4",0,0,2,1,784,10,7,9,2,6,0,0,NA
"831",5,6,7,"4","2","4",0,0,2,1,1258,4,5,2,8,7,0,0,NA
"832",5,6,8,"3","2","2",0,0,2,1,468,3,2,9,0,0,0,0,NA
"833",5,6,9,"5","1","2",1,2,1,1,670,6,6,8,0,0,0,0,NA
"834",5,6,10,"5","1","2",1,2,2,0,695,6,6,10,0,0,0,0,NA
"835",5,6,11,"2","1","2",2,1,1,1,752,2,6,2,0,0,0,0,NA
"836",5,6,12,"5","2","6",0,0,2,1,680,9,8,7,2,6,5,10,NA
"837",5,6,13,"5","2","6",0,0,2,1,644,6,5,9,10,8,2,7,NA
"838",5,6,14,"5","1","2",2,1,1,1,567,10,5,10,0,0,0,0,NA
"839",5,6,15,"1","1","4",2,3,2,0,569,1,5,1,9,10,0,0,NA
"840",5,6,16,"1","1","6",6,1,1,1,769,1,7,8,10,6,9,1,NA
"841",5,6,17,"5","2","6",0,0,1,0,729,7,10,8,9,6,5,2,NA
"842",5,6,18,"2","1","6",4,3,1,1,716,2,8,7,5,2,9,10,NA
"843",5,6,19,"4","2","6",0,0,2,1,557,4,10,6,9,8,7,2,NA
"844",5,6,20,"5","1","4",3,2,2,0,825,9,2,7,9,8,0,0,NA
"845",5,6,21,"3","2","6",0,0,2,1,639,3,2,8,9,6,10,7,NA
"846",5,6,22,"4","2","6",0,0,2,1,444,4,2,6,8,9,7,5,NA
"847",5,6,23,"5","1","2",2,1,1,1,495,5,2,5,0,0,0,0,NA
"848",5,6,24,"5","1","4",4,1,1,1,548,9,8,2,7,9,0,0,NA
"849",5,6,25,"5","1","4",4,1,1,1,936,8,10,9,6,8,0,0,NA
"850",5,7,1,"5","2","4",0,0,2,1,523,5,9,2,7,10,0,0,NA
"851",5,7,2,"4","2","6",0,0,2,1,501,4,7,2,10,8,9,6,NA
"852",5,7,3,"3","2","2",0,0,2,1,693,3,7,2,0,0,0,0,NA
"853",5,7,4,"4","2","2",0,0,2,1,533,4,8,6,0,0,0,0,NA
"854",5,7,5,"5","1","4",1,4,2,0,689,6,6,2,5,8,0,0,NA
"855",5,7,6,"5","1","6",3,4,1,1,492,7,8,9,7,6,2,5,NA
"856",5,7,7,"5","1","2",1,2,1,1,973,10,10,6,0,0,0,0,NA
"857",5,7,8,"5","1","2",2,1,1,1,554,7,2,7,0,0,0,0,NA
"858",5,7,9,"5","1","2",1,2,1,1,528,8,8,5,0,0,0,0,NA
"859",5,7,10,"3","2","2",0,0,2,1,487,3,7,2,0,0,0,0,NA
"860",5,7,11,"4","2","2",0,0,2,1,512,4,5,6,0,0,0,0,NA
"861",5,7,12,"5","2","6",0,0,1,0,922,6,5,7,2,10,8,9,NA
"862",5,7,13,"2","1","2",2,1,1,1,449,2,7,2,0,0,0,0,NA
"863",5,7,14,"5","1","4",3,2,1,1,489,5,7,8,5,2,0,0,NA
"864",5,7,15,"4","2","2",0,0,2,1,529,4,6,7,0,0,0,0,NA
"865",5,7,16,"5","1","2",2,1,1,1,585,9,5,9,0,0,0,0,NA
"866",5,7,17,"5","1","6",2,5,1,1,472,9,6,9,8,10,5,2,NA
"867",5,7,18,"5","2","4",0,0,1,0,575,6,8,10,9,2,0,0,NA
"868",5,7,19,"5","1","2",2,1,1,1,404,5,6,5,0,0,0,0,NA
"869",5,7,20,"5","2","2",0,0,2,1,568,7,10,6,0,0,0,0,NA
"870",5,7,21,"4","2","6",0,0,2,1,487,4,2,8,10,5,9,7,NA
"871",5,7,22,"2","1","6",6,1,1,1,594,2,5,9,10,7,6,2,NA
"872",5,7,23,"4","2","6",0,0,2,1,529,4,8,6,5,10,2,9,NA
"873",5,7,24,"3","2","6",0,0,2,1,459,3,10,2,5,6,7,8,NA
"874",5,7,25,"4","2","6",0,0,2,1,520,4,9,8,1,5,6,7,1
"875",6,1,1,"5","2","2",0,0,2,1,3301,10,6,9,0,0,0,0,NA
"876",6,1,2,"2","1","6",3,4,1,1,1663,2,5,6,2,7,9,8,NA
"877",6,1,3,"3","2","4",0,0,1,0,1702,3,5,9,7,2,0,0,NA
"878",6,1,4,"5","1","6",2,5,1,1,1456,5,2,5,8,7,10,9,NA
"879",6,1,5,"5","1","2",2,1,1,1,12650,8,7,8,0,0,0,0,NA
"880",6,1,6,"5","2","4",0,0,1,0,3129,5,10,9,8,6,0,0,NA
"881",6,1,7,"5","1","4",4,1,1,1,949,8,5,2,9,8,0,0,NA
"882",6,1,8,"5","1","6",5,2,1,1,974,9,2,6,8,5,9,10,NA
"883",6,1,9,"5","2","2",0,0,1,0,5147,6,2,9,0,0,0,0,NA
"884",6,1,10,"5","1","4",1,4,1,1,1014,5,5,2,7,10,0,0,NA
"885",6,1,11,"4","2","4",0,0,2,1,1815,4,7,6,9,2,0,0,NA
"886",6,1,12,"2","1","6",2,5,1,1,1196,2,10,2,9,7,5,8,NA
"887",6,1,13,"5","1","6",3,4,1,1,2091,5,10,2,5,6,7,8,NA
"888",6,1,14,"5","1","4",1,4,1,1,1569,8,8,2,6,5,0,0,NA
"889",6,1,15,"5","2","6",0,0,2,1,1249,9,2,10,8,6,5,7,NA
"890",6,1,16,"3","2","6",0,0,2,1,1981,3,7,8,10,9,2,5,NA
"891",6,1,17,"2","1","4",2,3,1,1,1655,2,8,2,7,6,0,0,NA
"892",6,1,18,"5","2","6",0,0,2,1,2211,6,7,8,5,2,9,10,NA
"893",6,1,19,"5","2","6",0,0,1,0,1465,9,6,10,2,7,8,5,NA
"894",6,1,20,"3","2","6",0,0,2,1,1597,3,5,9,8,6,2,10,NA
"895",6,1,21,"5","1","4",1,4,1,1,1574,5,5,2,6,8,0,0,NA
"896",6,1,22,"5","2","6",0,0,2,1,1510,7,5,10,8,6,2,9,NA
"897",6,1,23,"5","1","2",2,1,1,1,1710,10,5,10,0,0,0,0,NA
"898",6,1,24,"5","2","2",0,0,2,1,2141,9,10,2,0,0,0,0,NA
"899",6,1,25,"5","1","2",2,1,1,1,1516,8,9,8,0,0,0,0,NA
"900",6,2,1,"2","1","2",1,2,1,1,1158,2,2,10,0,0,0,0,NA
"901",6,2,2,"5","1","6",6,1,1,1,1383,5,6,10,7,2,8,5,NA
"902",6,2,3,"2","1","6",3,4,1,1,1230,2,7,8,2,5,9,10,NA
"903",6,2,4,"5","1","2",1,2,1,1,961,9,9,6,0,0,0,0,NA
"904",6,2,5,"1","1","6",6,1,1,1,1033,1,10,9,6,5,7,1,NA
"905",6,2,6,"5","1","6",3,4,1,1,1135,8,2,9,8,5,6,10,NA
"906",6,2,7,"5","1","2",2,1,1,1,869,8,6,8,0,0,0,0,NA
"907",6,2,8,"5","1","6",3,4,1,1,977,8,10,7,8,5,6,2,NA
"908",6,2,9,"4","2","2",0,0,2,1,1231,4,2,7,0,0,0,0,NA
"909",6,2,10,"5","2","6",0,0,2,1,1596,6,9,5,10,8,7,2,NA
"910",6,2,11,"5","1","6",1,6,1,1,1514,5,5,7,2,6,9,10,NA
"911",6,2,12,"5","1","4",4,1,1,1,1447,10,6,5,2,10,0,0,NA
"912",6,2,13,"5","1","2",1,2,1,1,977,10,10,9,0,0,0,0,NA
"913",6,2,14,"5","1","2",1,2,1,1,1166,9,9,8,0,0,0,0,NA
"914",6,2,15,"5","1","4",1,4,1,1,1160,10,10,2,5,7,0,0,NA
"915",6,2,16,"1","1","4",1,4,1,1,1060,1,1,5,6,8,0,0,NA
"916",6,2,17,"4","2","2",0,0,2,1,1182,4,5,9,0,0,0,0,NA
"917",6,2,18,"5","1","2",1,2,1,1,1090,10,10,7,0,0,0,0,NA
"918",6,2,19,"5","2","2",0,0,2,1,1291,9,10,6,0,0,0,0,NA
"919",6,2,20,"3","2","4",0,0,2,1,1649,3,2,7,10,5,0,0,NA
"920",6,2,21,"3","2","6",0,0,2,1,1406,3,5,8,2,6,7,9,NA
"921",6,2,22,"5","2","4",0,0,2,1,2975,7,10,2,5,8,0,0,NA
"922",6,2,23,"1","1","2",1,2,1,1,1724,1,1,9,0,0,0,0,NA
"923",6,2,24,"2","1","6",2,5,1,1,1430,2,8,2,5,9,10,6,NA
"924",6,2,25,"2","1","4",2,3,1,1,1686,2,5,2,7,6,0,0,NA
"925",6,3,1,"1","1","6",2,5,1,1,1885,1,6,1,5,10,9,8,NA
"926",6,3,2,"1","1","2",1,2,1,1,3061,1,1,7,0,0,0,0,NA
"927",6,3,3,"5","1","4",2,3,1,1,1189,10,7,10,6,2,0,0,NA
"928",6,3,4,"2","1","6",4,3,1,1,1379,2,8,5,7,2,10,9,NA
"929",6,3,5,"5","2","6",0,0,2,1,3563,10,5,6,8,9,2,7,NA
"930",6,3,6,"5","1","4",4,1,1,1,1654,8,5,2,9,8,0,0,NA
"931",6,3,7,"5","1","4",4,1,1,1,1581,10,8,2,7,10,0,0,NA
"932",6,3,8,"2","1","2",2,1,1,1,2241,2,9,2,0,0,0,0,NA
"933",6,3,9,"5","2","2",0,0,2,1,2219,5,2,8,0,0,0,0,NA
"934",6,3,10,"1","1","6",1,6,1,1,2929,1,1,7,6,9,5,10,NA
"935",6,3,11,"3","2","6",0,0,2,1,2330,3,8,2,7,6,9,5,NA
"936",6,3,12,"5","1","6",4,3,1,1,1707,5,6,2,7,5,9,8,NA
"937",6,3,13,"5","1","2",2,1,1,1,1467,7,2,7,0,0,0,0,NA
"938",6,3,14,"1","1","2",1,2,1,1,1108,1,1,7,0,0,0,0,NA
"939",6,3,15,"5","2","4",0,0,2,1,1874,9,8,5,7,2,0,0,NA
"940",6,3,16,"5","1","2",1,2,1,1,1947,7,7,9,0,0,0,0,NA
"941",6,3,17,"5","1","2",1,2,1,1,1569,6,6,2,0,0,0,0,NA
"942",6,3,18,"4","2","6",0,0,2,1,1633,4,6,8,2,5,9,7,NA
"943",6,3,19,"1","1","6",4,3,2,0,1821,1,9,6,7,1,5,8,NA
"944",6,3,20,"5","1","2",1,2,1,1,1624,5,5,10,0,0,0,0,NA
"945",6,3,21,"5","2","6",0,0,1,0,1654,10,9,6,7,2,8,5,NA
"946",6,3,22,"5","1","4",3,2,1,1,1469,5,6,9,5,2,0,0,NA
"947",6,3,23,"5","1","4",4,1,1,1,2940,9,10,6,2,9,0,0,NA
"948",6,3,24,"5","1","4",4,1,1,1,1920,6,9,8,2,6,0,0,NA
"949",6,3,25,"4","2","2",0,0,2,1,2087,4,2,7,0,0,0,0,NA
"950",6,4,1,"3","2","6",0,0,2,1,1100,3,9,6,7,10,2,5,NA
"951",6,4,2,"5","2","6",0,0,1,0,2062,5,9,7,2,8,10,6,NA
"952",6,4,3,"3","2","4",0,0,2,1,1270,3,6,10,7,2,0,0,NA
"953",6,4,4,"5","2","2",0,0,2,1,3223,6,9,10,0,0,0,0,NA
"954",6,4,5,"5","1","2",1,2,2,0,1722,5,5,8,0,0,0,0,NA
"955",6,4,6,"3","2","6",0,0,2,1,1220,3,2,7,10,8,5,9,NA
"956",6,4,7,"5","2","2",0,0,2,1,2136,5,2,10,0,0,0,0,NA
"957",6,4,8,"5","2","4",0,0,2,1,1436,9,2,10,8,6,0,0,NA
"958",6,4,9,"5","1","4",4,1,1,1,1339,9,2,5,6,9,0,0,NA
"959",6,4,10,"5","1","6",5,2,1,1,1221,8,5,7,2,6,8,10,NA
"960",6,4,11,"5","1","4",3,2,1,1,1005,7,10,2,7,8,0,0,NA
"961",6,4,12,"1","1","6",3,4,2,0,1220,1,6,5,1,7,8,9,NA
"962",6,4,13,"4","2","4",0,0,2,1,1228,4,9,5,2,7,0,0,NA
"963",6,4,14,"5","1","4",2,3,1,1,1797,7,2,7,9,10,0,0,NA
"964",6,4,15,"5","1","6",6,1,1,1,1035,6,2,9,5,7,8,6,NA
"965",6,4,16,"5","1","6",1,6,2,0,2016,10,10,7,9,2,6,8,NA
"966",6,4,17,"2","1","4",2,3,1,1,1369,2,9,2,8,7,0,0,NA
"967",6,4,18,"5","2","2",0,0,2,1,1846,10,7,2,0,0,0,0,NA
"968",6,4,19,"5","2","6",0,0,2,1,1514,6,9,8,10,5,7,2,NA
"969",6,4,20,"3","2","4",0,0,2,1,1239,3,2,6,10,7,0,0,NA
"970",6,4,21,"3","2","2",0,0,2,1,1162,3,10,5,0,0,0,0,NA
"971",6,4,22,"2","1","6",2,5,1,1,1386,2,10,2,6,7,9,8,NA
"972",6,4,23,"5","1","4",3,2,1,1,1068,10,9,2,10,6,0,0,NA
"973",6,4,24,"4","2","4",0,0,2,1,939,4,8,6,5,2,0,0,NA
"974",6,4,25,"4","2","4",0,0,2,1,1119,4,7,9,2,10,0,0,NA
"975",6,5,1,"1","1","4",4,1,1,1,3051,1,5,7,8,1,0,0,NA
"976",6,5,2,"4","2","2",0,0,2,1,5765,4,2,10,0,0,0,0,NA
"977",6,5,3,"1","1","6",1,6,2,0,1485,1,1,6,10,7,9,8,NA
"978",6,5,4,"5","2","4",0,0,1,0,1819,9,2,10,8,5,0,0,NA
"979",6,5,5,"5","1","4",4,1,1,1,971,10,7,5,2,10,0,0,NA
"980",6,5,6,"5","1","6",2,5,1,1,948,8,5,8,7,2,10,9,NA
"981",6,5,7,"3","2","4",0,0,2,1,1078,3,5,2,9,10,0,0,NA
"982",6,5,8,"5","2","4",0,0,2,1,2804,10,6,8,2,5,0,0,NA
"983",6,5,9,"5","1","2",2,1,1,1,1737,5,7,5,0,0,0,0,NA
"984",6,5,10,"5","1","2",2,1,1,1,999,9,8,9,0,0,0,0,NA
"985",6,5,11,"5","2","6",0,0,2,1,1230,7,10,2,5,6,8,9,NA
"986",6,5,12,"4","2","6",0,0,2,1,874,4,7,5,9,6,2,10,NA
"987",6,5,13,"5","1","4",2,3,1,1,1025,8,6,8,2,10,0,0,NA
"988",6,5,14,"5","1","4",4,1,1,1,754,9,2,8,5,9,0,0,NA
"989",6,5,15,"3","2","6",0,0,2,1,850,3,9,6,5,7,10,2,NA
"990",6,5,16,"5","1","2",2,1,1,1,852,9,2,9,0,0,0,0,NA
"991",6,5,17,"3","2","4",0,0,2,1,1067,3,7,2,5,10,0,0,NA
"992",6,5,18,"1","1","4",1,4,2,0,3641,1,1,8,7,5,0,0,NA
"993",6,5,19,"5","2","2",0,0,1,0,4076,8,9,6,0,0,0,0,NA
"994",6,5,20,"5","2","2",0,0,2,1,6157,7,5,2,0,0,0,0,NA
"995",6,5,21,"5","2","4",0,0,2,1,1841,8,5,7,10,2,0,0,NA
"996",6,5,22,"5","1","2",2,1,1,1,2347,8,5,8,0,0,0,0,NA
"997",6,5,23,"2","1","6",1,6,1,1,1900,2,2,5,6,10,8,9,NA
"998",6,5,24,"3","2","4",0,0,2,1,1049,3,6,2,7,10,0,0,NA
"999",6,5,25,"3","2","4",0,0,2,1,1177,3,6,9,2,7,0,0,NA
"1000",6,6,1,"5","1","4",2,3,1,1,1149,7,6,7,2,9,0,0,NA
"1001",6,6,2,"2","1","6",5,2,1,1,1197,2,10,8,9,7,2,5,NA
"1002",6,6,3,"5","2","6",0,0,2,1,1276,5,2,8,9,7,6,10,NA
"1003",6,6,4,"5","1","4",2,3,1,1,1362,10,7,10,6,2,0,0,NA
"1004",6,6,5,"3","2","2",0,0,2,1,1360,3,2,10,0,0,0,0,NA
"1005",6,6,6,"5","1","2",2,1,1,1,1726,6,2,6,0,0,0,0,NA
"1006",6,6,7,"4","2","2",0,0,2,1,1246,4,6,5,0,0,0,0,NA
"1007",6,6,8,"5","1","6",2,5,1,1,1338,9,2,9,5,7,6,8,NA
"1008",6,6,9,"5","1","2",2,1,1,1,1289,7,8,7,0,0,0,0,NA
"1009",6,6,10,"5","1","2",2,1,1,1,1082,7,2,7,0,0,0,0,NA
"1010",6,6,11,"3","2","6",0,0,2,1,1101,3,2,8,7,5,6,10,NA
"1011",6,6,12,"5","2","4",0,0,1,0,1194,6,2,9,10,5,0,0,NA
"1012",6,6,13,"2","1","4",4,1,1,1,1204,2,9,6,10,2,0,0,NA
"1013",6,6,14,"5","2","6",0,0,1,0,1443,6,7,5,9,8,10,2,NA
"1014",6,6,15,"2","1","4",1,4,1,1,1171,2,2,6,10,7,0,0,NA
"1015",6,6,16,"5","2","2",0,0,2,1,1160,8,6,5,0,0,0,0,NA
"1016",6,6,17,"5","1","2",1,2,1,1,1198,10,10,7,0,0,0,0,NA
"1017",6,6,18,"3","2","2",0,0,2,1,1266,3,7,1,0,0,0,0,NA
"1018",6,6,19,"5","1","4",3,2,1,1,1257,8,5,6,8,2,0,0,NA
"1019",6,6,20,"5","2","2",0,0,2,1,1099,9,7,5,0,0,0,0,NA
"1020",6,6,21,"5","1","4",1,4,1,1,1192,10,10,2,5,8,0,0,NA
"1021",6,6,22,"3","2","4",0,0,2,1,1090,3,5,7,2,6,0,0,NA
"1022",6,6,23,"2","1","2",2,1,1,1,1307,2,7,2,0,0,0,0,NA
"1023",6,6,24,"5","1","4",1,4,1,1,1008,10,10,2,5,7,0,0,NA
"1024",6,6,25,"5","1","6",2,5,1,1,1031,7,10,7,6,9,2,8,NA
"1025",6,7,1,"5","1","2",2,1,1,1,1301,9,5,9,0,0,0,0,NA
"1026",6,7,2,"5","1","2",2,1,1,1,837,8,7,8,0,0,0,0,NA
"1027",6,7,3,"4","2","4",0,0,2,1,797,4,2,6,8,9,0,0,NA
"1028",6,7,4,"5","2","4",0,0,2,1,1286,7,2,6,8,10,0,0,NA
"1029",6,7,5,"3","2","6",0,0,2,1,1233,3,6,9,2,7,5,10,NA
"1030",6,7,6,"5","1","6",6,1,1,1,1007,8,6,9,2,10,5,8,NA
"1031",6,7,7,"4","2","4",0,0,2,1,1152,4,6,8,5,2,0,0,NA
"1032",6,7,8,"3","2","6",0,0,2,1,1089,3,2,10,8,5,7,6,NA
"1033",6,7,9,"2","1","2",1,2,1,1,1210,2,2,9,0,0,0,0,NA
"1034",6,7,10,"5","2","4",0,0,2,1,2243,5,8,2,6,9,0,0,NA
"1035",6,7,11,"2","1","4",3,2,1,1,931,2,9,8,2,6,0,0,NA
"1036",6,7,12,"2","1","4",1,4,1,1,1335,2,2,7,5,9,0,0,NA
"1037",6,7,13,"5","2","6",0,0,2,1,1200,8,6,9,5,7,10,2,NA
"1038",6,7,14,"2","1","4",1,4,1,1,1001,2,2,5,10,8,0,0,NA
"1039",6,7,15,"5","2","6",0,0,2,1,1296,8,5,9,7,2,10,6,NA
"1040",6,7,16,"5","2","2",0,0,2,1,1329,7,6,9,0,0,0,0,NA
"1041",6,7,17,"3","2","6",0,0,2,1,971,3,7,8,9,2,10,6,NA
"1042",6,7,18,"5","2","6",0,0,2,1,1283,5,9,7,10,8,2,6,NA
"1043",6,7,19,"2","1","4",3,2,1,1,1432,2,6,8,2,10,0,0,NA
"1044",6,7,20,"5","2","6",0,0,2,1,1390,7,10,8,6,5,1,9,NA
"1045",6,7,21,"5","1","2",2,1,1,1,1370,5,2,5,0,0,0,0,NA
"1046",6,7,22,"1","1","6",4,3,1,1,1075,1,10,9,8,1,6,7,NA
"1047",6,7,23,"2","1","6",4,3,1,1,1014,2,5,9,10,2,7,8,NA
"1048",6,7,24,"5","1","4",2,3,2,0,1239,8,7,8,2,6,0,0,NA
"1049",6,7,25,"5","2","6",0,0,1,0,1012,8,6,2,10,5,9,7,1
"1050",7,1,1,"3","2","4",0,0,2,1,2208,3,9,10,7,2,0,0,NA
"1051",7,1,2,"5","1","2",2,1,1,1,1386,7,2,7,0,0,0,0,NA
"1052",7,1,3,"5","1","2",2,1,1,1,782,5,7,5,0,0,0,0,NA
"1053",7,1,4,"5","1","6",2,5,1,1,1021,5,10,5,9,6,7,2,NA
"1054",7,1,5,"5","1","4",4,1,1,1,845,9,2,6,8,9,0,0,NA
"1055",7,1,6,"5","1","6",3,4,1,1,795,8,2,7,8,5,10,6,NA
"1056",7,1,7,"3","2","2",0,0,2,1,1823,3,8,2,0,0,0,0,NA
"1057",7,1,8,"4","2","4",0,0,2,1,863,4,6,5,8,2,0,0,NA
"1058",7,1,9,"5","2","6",0,0,2,1,2011,8,2,6,10,7,5,9,NA
"1059",7,1,10,"3","2","2",0,0,2,1,911,3,6,10,0,0,0,0,NA
"1060",7,1,11,"5","1","2",2,1,1,1,872,5,10,5,0,0,0,0,NA
"1061",7,1,12,"4","2","4",0,0,2,1,1086,4,8,10,2,6,0,0,NA
"1062",7,1,13,"3","2","4",0,0,2,1,1132,3,2,6,5,10,0,0,NA
"1063",7,1,14,"5","2","4",0,0,2,1,1088,7,6,2,8,5,0,0,NA
"1064",7,1,15,"2","1","6",3,4,1,1,1196,2,9,10,2,7,6,5,NA
"1065",7,1,16,"5","1","2",1,2,2,0,1104,7,7,2,0,0,0,0,NA
"1066",7,1,17,"3","2","6",0,0,2,1,1363,3,8,6,2,9,5,7,NA
"1067",7,1,18,"3","2","2",0,0,2,1,881,3,5,9,0,0,0,0,NA
"1068",7,1,19,"5","1","6",5,2,1,1,1260,7,2,8,9,5,7,10,NA
"1069",7,1,20,"5","1","6",6,1,1,1,1345,10,1,8,5,7,9,10,NA
"1070",7,1,21,"2","1","4",1,4,1,1,1541,2,2,8,9,6,0,0,NA
"1071",7,1,22,"3","2","2",0,0,2,1,1043,3,5,6,0,0,0,0,NA
"1072",7,1,23,"3","2","4",0,0,2,1,1035,3,10,5,6,2,0,0,NA
"1073",7,1,24,"2","1","4",4,1,1,1,875,2,9,6,5,2,0,0,NA
"1074",7,1,25,"5","1","4",1,4,1,1,1266,9,9,2,5,7,0,0,NA
"1075",7,2,1,"5","1","2",2,1,1,1,1155,10,6,10,0,0,0,0,NA
"1076",7,2,2,"5","1","6",5,2,1,1,1052,8,7,6,5,10,8,2,NA
"1077",7,2,3,"5","1","6",4,3,1,1,944,7,6,2,8,7,5,10,NA
"1078",7,2,4,"3","2","2",0,0,2,1,671,3,6,10,0,0,0,0,NA
"1079",7,2,5,"5","2","4",0,0,1,0,1926,10,7,2,8,6,0,0,NA
"1080",7,2,6,"5","2","6",0,0,1,0,808,8,6,7,2,5,10,9,NA
"1081",7,2,7,"3","2","4",0,0,2,1,785,3,2,10,5,6,0,0,NA
"1082",7,2,8,"5","1","6",6,1,1,1,1041,6,7,5,2,9,8,6,NA
"1083",7,2,9,"5","1","6",3,4,1,1,1214,8,6,10,8,9,7,2,NA
"1084",7,2,10,"5","2","4",0,0,2,1,1175,10,9,5,8,2,0,0,NA
"1085",7,2,11,"5","2","4",0,0,1,0,1737,5,9,2,10,6,0,0,NA
"1086",7,2,12,"5","2","6",0,0,2,1,1075,7,5,6,10,8,9,2,NA
"1087",7,2,13,"4","2","2",0,0,2,1,964,4,6,10,0,0,0,0,NA
"1088",7,2,14,"1","1","4",4,1,1,1,935,1,8,5,7,1,0,0,NA
"1089",7,2,15,"1","1","4",3,2,1,1,1179,1,7,10,1,9,0,0,NA
"1090",7,2,16,"1","1","2",1,2,1,1,1224,1,1,5,0,0,0,0,NA
"1091",7,2,17,"2","1","2",1,2,1,1,1300,2,2,8,0,0,0,0,NA
"1092",7,2,18,"4","2","4",0,0,2,1,761,4,9,2,7,8,0,0,NA
"1093",7,2,19,"5","2","2",0,0,2,1,1263,10,5,7,0,0,0,0,NA
"1094",7,2,20,"5","1","2",1,2,1,1,1025,8,8,10,0,0,0,0,NA
"1095",7,2,21,"2","1","6",2,5,2,0,1255,2,6,2,7,10,9,5,NA
"1096",7,2,22,"5","1","4",2,3,1,1,2135,8,2,8,9,6,0,0,NA
"1097",7,2,23,"5","2","2",0,0,2,1,973,6,10,5,0,0,0,0,NA
"1098",7,2,24,"5","1","6",2,5,2,0,1566,7,2,7,8,6,9,5,NA
"1099",7,2,25,"4","2","6",0,0,2,1,845,4,9,10,8,2,7,5,NA
"1100",7,3,1,"3","2","6",0,0,2,1,710,3,7,8,2,5,6,9,NA
"1101",7,3,2,"5","1","6",2,5,2,0,1865,6,10,6,7,9,2,5,NA
"1102",7,3,3,"5","2","6",0,0,2,1,2125,9,6,7,8,2,5,10,NA
"1103",7,3,4,"5","2","2",0,0,2,1,916,7,8,5,0,0,0,0,NA
"1104",7,3,5,"5","1","2",1,2,1,1,1332,5,5,9,0,0,0,0,NA
"1105",7,3,6,"3","2","6",0,0,2,1,725,3,9,7,5,8,10,2,NA
"1106",7,3,7,"3","2","4",0,0,2,1,698,3,1,9,7,6,0,0,NA
"1107",7,3,8,"5","2","2",0,0,2,1,938,7,6,8,0,0,0,0,NA
"1108",7,3,9,"2","1","2",1,2,1,1,889,2,2,8,0,0,0,0,NA
"1109",7,3,10,"5","2","6",0,0,2,1,1068,7,9,6,2,5,10,8,NA
"1110",7,3,11,"5","2","2",0,0,2,1,901,9,10,6,0,0,0,0,NA
"1111",7,3,12,"5","1","2",1,2,1,1,1061,7,7,5,0,0,0,0,NA
"1112",7,3,13,"5","1","2",2,1,1,1,871,10,2,10,0,0,0,0,NA
"1113",7,3,14,"1","1","2",2,1,1,1,793,1,10,1,0,0,0,0,NA
"1114",7,3,15,"5","2","4",0,0,2,1,1075,8,9,6,5,2,0,0,NA
"1115",7,3,16,"5","1","2",1,2,1,1,1132,5,5,10,0,0,0,0,NA
"1116",7,3,17,"5","1","6",4,3,1,1,1389,6,9,5,7,6,10,2,NA
"1117",7,3,18,"5","1","6",5,2,1,1,1021,7,2,8,5,6,7,9,NA
"1118",7,3,19,"5","1","6",5,2,1,1,1291,8,6,5,10,7,8,2,NA
"1119",7,3,20,"3","2","4",0,0,2,1,673,3,7,6,2,8,0,0,NA
"1120",7,3,21,"1","1","4",2,3,1,1,888,1,8,1,7,9,0,0,NA
"1121",7,3,22,"5","2","2",0,0,2,1,760,6,9,2,0,0,0,0,NA
"1122",7,3,23,"5","2","2",0,0,2,1,839,10,9,8,0,0,0,0,NA
"1123",7,3,24,"5","1","4",2,3,1,1,1454,9,10,9,7,2,0,0,NA
"1124",7,3,25,"5","1","6",4,3,1,1,1179,5,7,6,10,5,9,2,NA
"1125",7,4,1,"5","2","4",0,0,2,1,967,6,9,2,10,5,0,0,NA
"1126",7,4,2,"1","1","6",4,3,1,1,1216,1,5,7,8,1,10,6,NA
"1127",7,4,3,"5","2","2",0,0,2,1,691,10,5,2,0,0,0,0,NA
"1128",7,4,4,"3","2","4",0,0,2,1,625,3,5,7,6,8,0,0,NA
"1129",7,4,5,"1","1","4",4,1,1,1,786,1,5,8,10,1,0,0,NA
"1130",7,4,6,"5","1","4",4,1,1,1,788,9,2,7,5,9,0,0,NA
"1131",7,4,7,"5","1","2",2,1,1,1,672,8,2,8,0,0,0,0,NA
"1132",7,4,8,"3","2","4",0,0,2,1,599,3,5,8,7,2,0,0,NA
"1133",7,4,9,"3","2","4",0,0,2,1,544,3,7,9,5,2,0,0,NA
"1134",7,4,10,"5","1","6",5,2,1,1,930,6,5,10,2,8,6,9,NA
"1135",7,4,11,"3","2","2",0,0,2,1,569,3,6,8,0,0,0,0,NA
"1136",7,4,12,"5","1","6",1,6,1,1,969,8,8,10,7,6,2,5,NA
"1137",7,4,13,"5","2","4",0,0,2,1,676,7,9,6,8,2,0,0,NA
"1138",7,4,14,"5","1","4",3,2,1,1,835,5,10,2,5,8,0,0,NA
"1139",7,4,15,"5","2","2",0,0,2,1,693,6,7,10,0,0,0,0,NA
"1140",7,4,16,"5","1","4",4,1,1,1,692,10,2,8,5,10,0,0,NA
"1141",7,4,17,"5","1","4",1,4,1,1,857,6,6,8,9,2,0,0,NA
"1142",7,4,18,"5","1","2",1,2,1,1,1019,6,6,10,0,0,0,0,NA
"1143",7,4,19,"5","1","6",6,1,1,1,730,8,2,10,5,9,7,8,NA
"1144",7,4,20,"5","2","6",0,0,1,0,1291,6,10,8,2,9,7,5,NA
"1145",7,4,21,"3","2","2",0,0,2,1,676,3,7,8,0,0,0,0,NA
"1146",7,4,22,"5","1","4",3,2,1,1,1211,8,9,2,8,6,0,0,NA
"1147",7,4,23,"2","1","2",1,2,1,1,967,2,2,7,0,0,0,0,NA
"1148",7,4,24,"2","1","4",4,1,1,1,706,2,5,9,6,2,0,0,NA
"1149",7,4,25,"5","1","2",1,2,1,1,810,7,7,10,0,0,0,0,NA
"1150",7,5,1,"2","1","6",4,3,1,1,765,2,10,8,5,2,9,7,NA
"1151",7,5,2,"5","1","2",1,2,1,1,1187,7,7,10,0,0,0,0,NA
"1152",7,5,3,"4","2","6",0,0,2,1,618,4,2,5,6,9,7,8,NA
"1153",7,5,4,"5","2","6",0,0,1,0,872,6,8,9,7,10,5,2,NA
"1154",7,5,5,"3","2","4",0,0,2,1,559,3,2,6,9,5,0,0,NA
"1155",7,5,6,"5","1","6",6,1,1,1,671,5,2,9,6,8,10,5,NA
"1156",7,5,7,"3","2","4",0,0,2,1,622,3,7,2,5,6,0,0,NA
"1157",7,5,8,"4","2","6",0,0,2,1,764,4,2,8,5,10,9,6,NA
"1158",7,5,9,"1","1","2",1,2,1,1,994,1,1,5,0,0,0,0,NA
"1159",7,5,10,"5","1","4",3,2,1,1,803,5,8,10,5,2,0,0,NA
"1160",7,5,11,"5","1","4",3,2,2,0,1277,6,2,10,6,9,0,0,NA
"1161",7,5,12,"5","1","6",6,1,1,1,705,5,10,2,6,7,8,5,NA
"1162",7,5,13,"3","2","6",0,0,2,1,692,3,10,6,9,2,7,5,NA
"1163",7,5,14,"1","1","6",2,5,1,1,1015,1,8,1,5,6,9,10,NA
"1164",7,5,15,"5","1","4",1,4,1,1,1048,8,8,9,2,5,0,0,NA
"1165",7,5,16,"3","2","6",0,0,2,1,525,3,6,8,7,9,2,10,NA
"1166",7,5,17,"5","2","2",0,0,1,0,660,8,6,10,0,0,0,0,NA
"1167",7,5,18,"5","1","4",2,3,2,0,1163,5,8,5,2,6,0,0,NA
"1168",7,5,19,"5","2","6",0,0,2,1,1116,9,6,8,5,10,7,2,NA
"1169",7,5,20,"1","1","2",1,2,1,1,1052,1,1,9,0,0,0,0,NA
"1170",7,5,21,"5","1","2",1,2,1,1,805,5,5,2,0,0,0,0,NA
"1171",7,5,22,"2","1","6",4,3,2,0,892,2,10,7,6,2,5,8,NA
"1172",7,5,23,"2","1","2",2,1,1,1,1141,2,5,2,0,0,0,0,NA
"1173",7,5,24,"5","1","4",4,1,1,1,929,10,5,2,7,10,0,0,NA
"1174",7,5,25,"5","2","2",0,0,2,1,968,9,10,6,0,0,0,0,NA
"1175",7,6,1,"3","2","4",0,0,2,1,587,3,6,10,8,2,0,0,NA
"1176",7,6,2,"5","2","4",0,0,2,1,885,9,8,2,6,7,0,0,NA
"1177",7,6,3,"5","1","4",1,4,1,1,1747,8,8,5,2,10,0,0,NA
"1178",7,6,4,"2","1","6",5,2,1,1,1109,2,8,7,9,10,2,6,NA
"1179",7,6,5,"3","2","4",0,0,2,1,546,3,8,6,7,5,0,0,NA
"1180",7,6,6,"5","1","6",1,6,2,0,1163,6,6,2,7,9,8,10,NA
"1181",7,6,7,"5","2","6",0,0,2,1,1572,9,2,8,10,7,6,5,NA
"1182",7,6,8,"5","2","4",0,0,1,0,927,5,10,2,6,7,0,0,NA
"1183",7,6,9,"5","1","2",1,2,1,1,1158,8,8,10,0,0,0,0,NA
"1184",7,6,10,"5","1","6",3,4,1,1,1031,8,2,7,8,6,9,5,NA
"1185",7,6,11,"2","1","2",1,2,1,1,898,2,2,10,0,0,0,0,NA
"1186",7,6,12,"1","1","6",5,2,1,1,612,1,6,5,10,7,1,8,NA
"1187",7,6,13,"2","1","6",2,5,2,0,955,2,7,2,9,8,10,5,NA
"1188",7,6,14,"3","2","6",0,0,2,1,620,3,2,9,6,8,10,7,NA
"1189",7,6,15,"3","2","2",0,0,2,1,599,3,2,5,0,0,0,0,NA
"1190",7,6,16,"5","2","2",0,0,2,1,1027,8,7,9,0,0,0,0,NA
"1191",7,6,17,"3","2","6",0,0,2,1,601,3,8,6,7,2,9,10,NA
"1192",7,6,18,"5","1","4",2,3,1,1,827,6,8,6,2,5,0,0,NA
"1193",7,6,19,"1","1","2",2,1,1,1,726,1,9,1,0,0,0,0,NA
"1194",7,6,20,"5","2","2",0,0,2,1,934,6,5,7,0,0,0,0,NA
"1195",7,6,21,"5","1","6",6,1,1,1,687,8,5,10,2,7,6,8,NA
"1196",7,6,22,"2","1","4",4,1,1,1,821,2,6,10,9,2,0,0,NA
"1197",7,6,23,"3","2","4",0,0,2,1,574,3,6,2,8,7,0,0,NA
"1198",7,6,24,"1","1","2",2,1,1,1,555,1,7,1,0,0,0,0,NA
"1199",7,6,25,"1","1","4",2,3,1,1,1022,1,10,1,7,5,0,0,NA
"1200",7,7,1,"5","2","2",0,0,2,1,815,6,8,5,0,0,0,0,NA
"1201",7,7,2,"5","1","6",2,5,2,0,1197,7,10,7,6,5,9,2,NA
"1202",7,7,3,"5","1","4",4,1,1,1,887,9,2,10,7,9,0,0,NA
"1203",7,7,4,"1","1","6",2,5,1,1,1019,1,7,1,6,9,8,5,NA
"1204",7,7,5,"5","2","6",0,0,2,1,1240,9,7,8,10,2,6,5,NA
"1205",7,7,6,"5","1","6",2,5,1,1,886,7,2,7,9,8,10,6,NA
"1206",7,7,7,"5","2","6",0,0,2,1,1545,9,6,8,2,5,10,7,NA
"1207",7,7,8,"5","1","4",2,3,2,0,1509,5,7,5,2,6,0,0,NA
"1208",7,7,9,"5","2","4",0,0,1,0,899,5,2,9,7,10,0,0,NA
"1209",7,7,10,"5","2","4",0,0,1,0,1296,5,10,9,2,7,0,0,NA
"1210",7,7,11,"5","1","6",1,6,1,1,1140,5,5,2,7,6,8,9,NA
"1211",7,7,12,"5","1","6",6,1,1,1,669,8,5,10,7,9,2,8,NA
"1212",7,7,13,"1","1","4",4,1,1,1,587,1,9,7,8,1,0,0,NA
"1213",7,7,14,"5","1","2",2,1,1,1,720,6,8,6,0,0,0,0,NA
"1214",7,7,15,"5","1","6",2,5,1,1,730,8,7,8,2,5,10,9,NA
"1215",7,7,16,"5","2","2",0,0,2,1,737,10,8,2,0,0,0,0,NA
"1216",7,7,17,"2","1","6",3,4,1,1,1362,2,10,5,2,9,8,7,NA
"1217",7,7,18,"5","1","4",2,3,1,1,1350,9,10,9,2,6,0,0,NA
"1218",7,7,19,"5","1","4",3,2,1,1,1073,7,9,5,7,2,0,0,NA
"1219",7,7,20,"3","2","2",0,0,2,1,555,3,8,9,0,0,0,0,NA
"1220",7,7,21,"2","1","2",1,2,1,1,793,2,2,6,0,0,0,0,NA
"1221",7,7,22,"3","2","2",0,0,2,1,573,3,7,10,0,0,0,0,NA
"1222",7,7,23,"5","2","4",0,0,1,0,888,9,6,8,2,5,0,0,NA
"1223",7,7,24,"3","2","2",0,0,2,1,657,3,2,5,0,0,0,0,NA
"1224",7,7,25,"2","1","4",4,1,1,1,752,2,8,5,6,2,0,0,3
"1225",8,1,1,"3","2","2",0,0,2,1,2377,3,6,10,0,0,0,0,NA
"1226",8,1,2,"3","2","6",0,0,1,0,913,3,2,5,8,10,6,7,NA
"1227",8,1,3,"5","1","6",5,2,1,1,1508,8,2,7,5,10,8,6,NA
"1228",8,1,4,"5","1","2",2,1,1,1,844,10,1,10,0,0,0,0,NA
"1229",8,1,5,"4","2","4",0,0,2,1,652,4,2,8,6,9,0,0,NA
"1230",8,1,6,"5","2","4",0,0,2,1,723,5,7,2,6,8,0,0,NA
"1231",8,1,7,"5","1","4",4,1,1,1,1432,9,6,7,5,9,0,0,NA
"1232",8,1,8,"5","2","6",0,0,1,0,1101,7,6,5,9,2,8,10,NA
"1233",8,1,9,"5","1","2",1,2,1,1,997,10,10,5,0,0,0,0,NA
"1234",8,1,10,"5","2","4",0,0,2,1,1343,10,7,8,5,2,0,0,NA
"1235",8,1,11,"3","2","4",0,0,2,1,1059,3,6,9,5,2,0,0,NA
"1236",8,1,12,"5","1","6",2,5,1,1,1343,10,6,10,8,7,5,2,NA
"1237",8,1,13,"4","2","4",0,0,2,1,612,4,10,8,5,2,0,0,NA
"1238",8,1,14,"3","2","4",0,0,2,1,1109,3,10,6,2,9,0,0,NA
"1239",8,1,15,"5","2","6",0,0,2,1,1151,10,9,7,5,2,8,6,NA
"1240",8,1,16,"5","2","4",0,0,2,1,1395,6,7,9,2,8,0,0,NA
"1241",8,1,17,"5","1","4",4,1,1,1,1021,10,6,5,2,10,0,0,NA
"1242",8,1,18,"5","1","2",1,2,1,1,720,10,10,2,0,0,0,0,NA
"1243",8,1,19,"5","1","4",3,2,1,1,981,8,5,6,8,10,0,0,NA
"1244",8,1,20,"5","1","4",3,2,1,1,896,9,6,8,9,2,0,0,NA
"1245",8,1,21,"2","1","6",2,5,1,1,1579,2,7,2,9,6,10,8,NA
"1246",8,1,22,"3","2","6",0,0,2,1,1163,3,2,10,8,7,9,5,NA
"1247",8,1,23,"5","1","6",1,6,1,1,844,6,6,8,9,7,10,2,NA
"1248",8,1,24,"1","1","6",1,6,1,1,849,1,1,8,6,9,7,5,NA
"1249",8,1,25,"5","1","4",3,2,1,1,648,6,5,2,6,8,0,0,NA
"1250",8,2,1,"5","1","4",3,2,1,1,736,9,2,7,9,10,0,0,NA
"1251",8,2,2,"5","1","2",2,1,1,1,495,9,5,9,0,0,0,0,NA
"1252",8,2,3,"5","1","6",6,1,1,1,554,9,8,6,2,10,5,9,NA
"1253",8,2,4,"5","1","2",2,1,1,1,504,6,10,6,0,0,0,0,NA
"1254",8,2,5,"5","1","4",4,1,1,1,406,10,8,9,2,10,0,0,NA
"1255",8,2,6,"5","1","2",2,1,1,1,418,7,2,7,0,0,0,0,NA
"1256",8,2,7,"5","1","6",2,5,2,0,1072,8,2,8,9,6,10,5,NA
"1257",8,2,8,"3","2","6",0,0,2,1,868,3,10,5,7,6,2,9,NA
"1258",8,2,9,"5","1","2",1,2,1,1,717,5,5,10,0,0,0,0,NA
"1259",8,2,10,"1","1","4",1,4,1,1,873,1,1,6,8,7,0,0,NA
"1260",8,2,11,"5","1","2",1,2,1,1,667,7,7,10,0,0,0,0,NA
"1261",8,2,12,"5","2","2",0,0,2,1,716,9,7,8,0,0,0,0,NA
"1262",8,2,13,"3","2","2",0,0,2,1,627,3,7,8,0,0,0,0,NA
"1263",8,2,14,"2","1","2",2,1,1,1,815,2,8,2,0,0,0,0,NA
"1264",8,2,15,"3","2","6",0,0,2,1,797,3,6,9,7,10,2,5,NA
"1265",8,2,16,"5","1","4",3,2,1,1,607,9,7,10,9,2,0,0,NA
"1266",8,2,17,"4","2","4",0,0,2,1,648,4,9,6,2,5,0,0,NA
"1267",8,2,18,"5","2","4",0,0,2,1,815,9,2,5,7,6,0,0,NA
"1268",8,2,19,"5","1","6",5,2,1,1,997,8,9,5,6,2,8,10,NA
"1269",8,2,20,"4","2","6",0,0,2,1,613,4,2,5,8,10,6,9,NA
"1270",8,2,21,"1","1","2",2,1,1,1,545,1,7,1,0,0,0,0,NA
"1271",8,2,22,"5","1","6",6,1,1,1,394,8,7,2,10,5,9,8,NA
"1272",8,2,23,"5","1","6",3,4,1,1,721,5,2,10,5,9,8,6,NA
"1273",8,2,24,"5","1","6",5,2,1,1,2771,9,2,6,10,7,9,8,NA
"1274",8,2,25,"5","1","6",5,2,2,0,1411,10,8,9,5,6,10,2,NA
"1275",8,3,1,"5","1","2",2,1,1,1,621,8,10,8,0,0,0,0,NA
"1276",8,3,2,"2","1","4",1,4,1,1,670,2,2,8,10,5,0,0,NA
"1277",8,3,3,"5","1","6",1,6,1,1,586,5,5,2,9,6,8,10,NA
"1278",8,3,4,"4","2","6",0,0,2,1,625,4,9,8,10,2,5,6,NA
"1279",8,3,5,"5","1","6",2,5,1,1,631,6,9,6,2,10,8,7,NA
"1280",8,3,6,"4","2","2",0,0,2,1,1882,4,10,9,0,0,0,0,NA
"1281",8,3,7,"5","2","4",0,0,1,0,688,9,7,2,5,6,0,0,NA
"1282",8,3,8,"5","2","2",0,0,2,1,673,7,8,9,0,0,0,0,NA
"1283",8,3,9,"5","1","6",6,1,1,1,540,10,8,5,9,1,6,10,NA
"1284",8,3,10,"5","2","2",0,0,2,1,635,9,2,5,0,0,0,0,NA
"1285",8,3,11,"5","1","4",3,2,1,1,483,7,2,5,7,8,0,0,NA
"1286",8,3,12,"1","1","2",1,2,1,1,452,1,1,8,0,0,0,0,NA
"1287",8,3,13,"1","1","2",1,2,1,1,494,1,1,8,0,0,0,0,NA
"1288",8,3,14,"5","1","4",1,4,1,1,844,7,7,6,2,9,0,0,NA
"1289",8,3,15,"5","2","4",0,0,2,1,1740,8,2,9,7,5,0,0,NA
"1290",8,3,16,"5","1","4",4,1,1,1,560,6,8,5,2,6,0,0,NA
"1291",8,3,17,"5","1","2",1,2,1,1,486,9,9,2,0,0,0,0,NA
"1292",8,3,18,"5","1","4",2,3,1,1,764,6,8,6,7,2,0,0,NA
"1293",8,3,19,"1","1","2",1,2,1,1,506,1,1,8,0,0,0,0,NA
"1294",8,3,20,"4","2","6",0,0,2,1,669,4,7,9,5,10,2,8,NA
"1295",8,3,21,"5","1","6",6,1,1,1,393,6,9,7,5,2,10,6,NA
"1296",8,3,22,"3","2","2",0,0,2,1,765,3,9,5,0,0,0,0,NA
"1297",8,3,23,"5","2","4",0,0,2,1,816,6,2,7,5,10,0,0,NA
"1298",8,3,24,"5","2","4",0,0,2,1,624,9,8,2,5,7,0,0,NA
"1299",8,3,25,"5","1","4",4,1,1,1,425,9,10,2,7,9,0,0,NA
"1300",8,4,1,"5","2","6",0,0,2,1,3438,8,2,10,6,9,5,7,NA
"1301",8,4,2,"2","1","2",2,1,1,1,528,2,5,2,0,0,0,0,NA
"1302",8,4,3,"3","2","6",0,0,2,1,875,3,9,7,2,8,6,5,NA
"1303",8,4,4,"3","2","4",0,0,2,1,849,3,10,5,7,2,0,0,NA
"1304",8,4,5,"1","1","6",2,5,1,1,454,1,10,1,6,8,5,7,NA
"1305",8,4,6,"3","2","4",0,0,2,1,517,3,2,8,6,10,0,0,NA
"1306",8,4,7,"5","2","2",0,0,1,0,620,8,10,7,0,0,0,0,NA
"1307",8,4,8,"5","2","6",0,0,2,1,634,5,6,10,8,2,9,7,NA
"1308",8,4,9,"5","2","4",0,0,2,1,882,7,2,8,6,5,0,0,NA
"1309",8,4,10,"4","2","4",0,0,2,1,552,4,2,5,7,8,0,0,NA
"1310",8,4,11,"5","2","6",0,0,1,0,617,7,6,10,5,2,9,8,NA
"1311",8,4,12,"1","1","6",4,3,1,1,415,1,9,6,7,1,10,5,NA
"1312",8,4,13,"5","1","6",6,1,1,1,549,8,10,9,2,5,6,8,NA
"1313",8,4,14,"5","1","6",5,2,1,1,526,9,10,7,6,2,9,8,NA
"1314",8,4,15,"5","2","4",0,0,2,1,962,10,2,7,9,8,0,0,NA
"1315",8,4,16,"2","1","4",3,2,1,1,518,2,10,5,2,7,0,0,NA
"1316",8,4,17,"4","2","6",0,0,2,1,1464,4,9,8,10,2,7,6,NA
"1317",8,4,18,"2","1","2",2,1,1,1,1026,2,10,2,0,0,0,0,NA
"1318",8,4,19,"2","1","4",4,1,1,1,730,2,10,9,8,2,0,0,NA
"1319",8,4,20,"4","2","2",0,0,2,1,993,4,7,9,0,0,0,0,NA
"1320",8,4,21,"4","2","6",0,0,2,1,633,4,5,10,7,8,9,2,NA
"1321",8,4,22,"5","1","2",2,1,1,1,451,10,6,10,0,0,0,0,NA
"1322",8,4,23,"1","1","6",6,1,1,1,392,1,7,5,6,9,10,1,NA
"1323",8,4,24,"5","1","6",6,1,1,1,352,7,10,8,9,5,2,7,NA
"1324",8,4,25,"5","1","2",2,1,1,1,502,9,8,9,0,0,0,0,NA
"1325",8,5,1,"3","2","4",0,0,2,1,494,3,8,5,2,10,0,0,NA
"1326",8,5,2,"4","2","4",0,0,2,1,564,4,6,2,7,9,0,0,NA
"1327",8,5,3,"1","1","4",2,3,1,1,703,1,9,1,10,6,0,0,NA
"1328",8,5,4,"3","2","6",0,0,2,1,562,3,8,9,7,10,6,2,NA
"1329",8,5,5,"5","1","6",1,6,1,1,563,5,5,2,6,7,8,9,NA
"1330",8,5,6,"2","1","6",5,2,1,1,435,2,7,6,10,5,2,8,NA
"1331",8,5,7,"5","1","2",1,2,1,1,398,10,10,7,0,0,0,0,NA
"1332",8,5,8,"5","2","6",0,0,2,1,525,9,2,10,5,6,8,7,NA
"1333",8,5,9,"5","2","2",0,0,2,1,596,8,5,7,0,0,0,0,NA
"1334",8,5,10,"5","1","2",1,2,1,1,681,9,9,2,0,0,0,0,NA
"1335",8,5,11,"5","1","6",3,4,1,1,1012,6,2,10,6,8,5,9,NA
"1336",8,5,12,"5","2","2",0,0,2,1,1080,6,2,5,0,0,0,0,NA
"1337",8,5,13,"5","1","6",3,4,1,1,532,9,7,2,9,5,6,10,NA
"1338",8,5,14,"1","1","2",1,2,1,1,475,1,1,7,0,0,0,0,NA
"1339",8,5,15,"5","2","6",0,0,2,1,831,9,2,5,6,10,7,8,NA
"1340",8,5,16,"2","1","6",3,4,1,1,740,2,10,5,2,8,9,7,NA
"1341",8,5,17,"5","2","4",0,0,1,0,1280,8,5,6,9,2,0,0,NA
"1342",8,5,18,"3","2","4",0,0,2,1,584,3,7,2,9,5,0,0,NA
"1343",8,5,19,"1","1","6",6,1,1,1,710,1,5,7,6,9,10,1,NA
"1344",8,5,20,"5","2","4",0,0,2,1,500,5,6,2,8,7,0,0,NA
"1345",8,5,21,"3","2","6",0,0,2,1,559,3,6,9,2,5,10,8,NA
"1346",8,5,22,"5","1","4",1,4,1,1,562,6,6,2,5,9,0,0,NA
"1347",8,5,23,"5","2","4",0,0,2,1,813,9,7,8,2,5,0,0,NA
"1348",8,5,24,"5","1","2",1,2,1,1,585,9,9,2,0,0,0,0,NA
"1349",8,5,25,"3","2","2",0,0,2,1,822,3,7,2,0,0,0,0,NA
"1350",8,6,1,"1","1","6",1,6,2,0,1395,1,1,6,10,9,8,5,NA
"1351",8,6,2,"3","2","4",0,0,2,1,701,3,2,7,8,5,0,0,NA
"1352",8,6,3,"5","1","4",4,1,1,1,378,7,9,8,2,7,0,0,NA
"1353",8,6,4,"5","1","4",3,2,1,1,1045,9,10,6,9,2,0,0,NA
"1354",8,6,5,"5","1","4",4,1,1,1,341,9,10,8,2,9,0,0,NA
"1355",8,6,6,"3","2","4",0,0,2,1,545,3,8,10,9,2,0,0,NA
"1356",8,6,7,"5","1","2",1,2,1,1,800,10,10,8,0,0,0,0,NA
"1357",8,6,8,"5","1","2",2,1,1,1,500,5,10,5,0,0,0,0,NA
"1358",8,6,9,"4","2","2",0,0,2,1,652,4,6,2,0,0,0,0,NA
"1359",8,6,10,"5","2","4",0,0,2,1,691,10,2,9,5,8,0,0,NA
"1360",8,6,11,"3","2","4",0,0,2,1,833,3,6,2,5,9,0,0,NA
"1361",8,6,12,"5","1","2",2,1,1,1,492,5,6,5,0,0,0,0,NA
"1362",8,6,13,"3","2","4",0,0,2,1,578,3,5,2,8,7,0,0,NA
"1363",8,6,14,"5","2","6",0,0,2,1,642,7,10,5,9,2,8,6,NA
"1364",8,6,15,"3","2","6",0,0,2,1,647,3,8,7,6,5,10,2,NA
"1365",8,6,16,"3","2","2",0,0,2,1,546,3,2,5,0,0,0,0,NA
"1366",8,6,17,"3","2","4",0,0,2,1,550,3,2,6,5,7,0,0,NA
"1367",8,6,18,"4","2","2",0,0,2,1,572,4,7,9,0,0,0,0,NA
"1368",8,6,19,"5","1","4",1,4,1,1,911,8,8,2,10,5,0,0,NA
"1369",8,6,20,"5","2","2",0,0,2,1,430,8,2,10,0,0,0,0,NA
"1370",8,6,21,"5","2","2",0,0,2,1,578,5,1,6,0,0,0,0,NA
"1371",8,6,22,"5","1","2",1,2,1,1,863,5,5,6,0,0,0,0,NA
"1372",8,6,23,"5","1","6",3,4,1,1,588,5,6,7,5,9,10,2,NA
"1373",8,6,24,"5","1","2",1,2,1,1,408,9,9,7,0,0,0,0,NA
"1374",8,6,25,"3","2","6",0,0,2,1,583,3,8,7,2,10,9,6,NA
"1375",8,7,1,"2","1","2",2,1,1,1,376,2,7,2,0,0,0,0,NA
"1376",8,7,2,"5","2","6",0,0,2,1,816,10,2,8,7,6,5,9,NA
"1377",8,7,3,"5","1","4",3,2,1,1,352,9,8,7,9,2,0,0,NA
"1378",8,7,4,"5","1","4",2,3,1,1,324,9,10,9,5,2,0,0,NA
"1379",8,7,5,"5","2","6",0,0,2,1,534,7,2,8,6,10,9,5,NA
"1380",8,7,6,"2","1","2",2,1,1,1,356,2,10,2,0,0,0,0,NA
"1381",8,7,7,"3","2","2",0,0,2,1,530,3,10,7,0,0,0,0,NA
"1382",8,7,8,"5","1","6",2,5,1,1,756,6,5,6,7,9,8,1,NA
"1383",8,7,9,"2","1","6",2,5,1,1,469,2,5,2,6,8,9,7,NA
"1384",8,7,10,"2","1","6",2,5,1,1,473,2,7,2,5,9,8,6,NA
"1385",8,7,11,"5","2","2",0,0,2,1,450,7,6,9,0,0,0,0,NA
"1386",8,7,12,"2","1","2",1,2,1,1,468,2,2,5,0,0,0,0,NA
"1387",8,7,13,"5","1","6",3,4,2,0,712,10,2,8,10,6,9,7,NA
"1388",8,7,14,"5","1","6",5,2,1,1,547,6,8,10,2,7,6,5,NA
"1389",8,7,15,"5","1","6",1,6,2,0,693,5,5,7,2,8,6,9,NA
"1390",8,7,16,"2","1","6",4,3,1,1,624,2,5,6,9,2,8,7,NA
"1391",8,7,17,"4","2","2",0,0,2,1,539,4,9,5,0,0,0,0,NA
"1392",8,7,18,"5","2","2",0,0,2,1,1538,8,7,1,0,0,0,0,NA
"1393",8,7,19,"5","1","6",3,4,1,1,395,6,10,2,6,7,8,5,NA
"1394",8,7,20,"1","1","6",3,4,1,1,866,1,8,9,1,10,5,6,NA
"1395",8,7,21,"5","2","2",0,0,2,1,3747,10,5,8,0,0,0,0,NA
"1396",8,7,22,"2","1","2",2,1,1,1,409,2,10,2,0,0,0,0,NA
"1397",8,7,23,"3","2","6",0,0,2,1,768,3,10,9,8,7,2,6,NA
"1398",8,7,24,"5","2","6",0,0,2,1,608,8,7,6,9,2,10,5,NA
"1399",8,7,25,"5","1","2",1,2,1,1,428,7,7,8,0,0,0,0,NA
"1400",9,1,1,"1","1","2",2,1,1,1,1698,1,9,1,0,0,0,0,NA
"1401",9,1,2,"5","1","4",3,2,1,1,773,7,9,2,7,10,0,0,NA
"1402",9,1,3,"3","2","6",0,0,2,1,783,3,6,8,5,7,2,10,NA
"1403",9,1,4,"5","2","6",0,0,1,0,638,8,2,6,10,5,9,7,NA
"1404",9,1,5,"2","1","6",6,1,1,1,484,2,9,10,8,6,5,2,NA
"1405",9,1,6,"5","2","4",0,0,2,1,1033,5,7,9,6,2,0,0,NA
"1406",9,1,7,"5","2","2",0,0,2,1,692,5,2,10,0,0,0,0,NA
"1407",9,1,8,"5","1","4",3,2,1,1,514,7,2,5,7,8,0,0,NA
"1408",9,1,9,"3","2","2",0,0,2,1,529,3,8,9,0,0,0,0,NA
"1409",9,1,10,"3","2","4",0,0,2,1,662,3,5,8,2,10,0,0,NA
"1410",9,1,11,"2","1","2",2,1,1,1,543,2,7,2,0,0,0,0,NA
"1411",9,1,12,"5","1","4",2,3,1,1,595,9,2,9,8,10,0,0,NA
"1412",9,1,13,"5","2","6",0,0,2,1,698,5,10,6,8,7,2,9,NA
"1413",9,1,14,"1","1","6",1,6,1,1,604,1,1,6,8,5,7,10,NA
"1414",9,1,15,"5","2","2",0,0,2,1,584,6,8,10,0,0,0,0,NA
"1415",9,1,16,"5","1","4",2,3,1,1,697,10,2,10,9,6,0,0,NA
"1416",9,1,17,"5","2","2",0,0,2,1,721,6,2,10,0,0,0,0,NA
"1417",9,1,18,"5","1","2",1,2,2,0,537,7,7,8,0,0,0,0,NA
"1418",9,1,19,"1","1","6",6,1,1,1,530,1,9,5,8,10,7,1,NA
"1419",9,1,20,"4","2","2",0,0,2,1,688,4,2,6,0,0,0,0,NA
"1420",9,1,21,"4","2","4",0,0,2,1,605,4,10,9,6,2,0,0,NA
"1421",9,1,22,"5","1","2",2,1,2,0,986,5,2,5,0,0,0,0,NA
"1422",9,1,23,"5","1","4",2,3,1,1,603,5,10,5,9,7,0,0,NA
"1423",9,1,24,"5","1","6",6,1,1,1,418,7,9,8,10,6,2,7,NA
"1424",9,1,25,"4","2","6",0,0,2,1,591,4,5,2,8,9,10,6,NA
"1425",9,2,1,"5","1","2",2,1,1,1,425,9,2,9,0,0,0,0,NA
"1426",9,2,2,"5","1","6",6,1,1,1,391,5,9,10,8,7,2,5,NA
"1427",9,2,3,"5","1","6",2,5,1,1,694,7,5,7,9,8,6,2,NA
"1428",9,2,4,"3","2","4",0,0,2,1,451,3,2,5,9,8,0,0,NA
"1429",9,2,5,"5","1","6",4,3,1,1,816,7,6,9,2,7,5,8,NA
"1430",9,2,6,"5","2","2",0,0,2,1,675,5,8,6,0,0,0,0,NA
"1431",9,2,7,"5","1","2",1,2,1,1,877,10,10,7,0,0,0,0,NA
"1432",9,2,8,"5","1","6",3,4,1,1,648,5,9,6,5,8,10,2,NA
"1433",9,2,9,"5","2","2",0,0,1,0,498,5,2,6,0,0,0,0,NA
"1434",9,2,10,"5","1","2",1,2,1,1,370,5,5,2,0,0,0,0,NA
"1435",9,2,11,"3","2","2",0,0,2,1,487,3,5,2,0,0,0,0,NA
"1436",9,2,12,"2","1","4",1,4,2,0,733,2,2,9,6,5,0,0,NA
"1437",9,2,13,"5","2","2",0,0,2,1,1220,5,9,2,0,0,0,0,NA
"1438",9,2,14,"5","2","2",0,0,2,1,567,9,7,2,0,0,0,0,NA
"1439",9,2,15,"5","1","6",3,4,1,1,670,6,5,8,6,9,2,7,NA
"1440",9,2,16,"5","1","2",2,1,1,1,967,10,5,10,0,0,0,0,NA
"1441",9,2,17,"5","1","4",2,3,1,1,746,8,2,8,7,10,0,0,NA
"1442",9,2,18,"1","1","4",4,1,1,1,485,1,5,8,7,1,0,0,NA
"1443",9,2,19,"4","2","4",0,0,2,1,619,4,7,5,8,2,0,0,NA
"1444",9,2,20,"3","2","2",0,0,2,1,581,3,6,9,0,0,0,0,NA
"1445",9,2,21,"5","2","4",0,0,2,1,1127,7,8,5,2,9,0,0,NA
"1446",9,2,22,"5","1","6",1,6,2,0,1273,6,6,2,10,9,7,5,NA
"1447",9,2,23,"5","1","6",2,5,1,1,741,9,5,9,8,10,2,6,NA
"1448",9,2,24,"1","1","4",2,3,2,0,1425,1,10,1,7,5,0,0,NA
"1449",9,2,25,"5","1","4",1,4,2,0,1169,9,9,7,6,8,0,0,NA
"1450",9,3,1,"3","2","2",0,0,2,1,554,3,7,10,0,0,0,0,NA
"1451",9,3,2,"5","2","2",0,0,2,1,680,9,5,2,0,0,0,0,NA
"1452",9,3,3,"5","1","6",5,2,1,1,747,7,2,9,6,5,7,10,NA
"1453",9,3,4,"5","2","6",0,0,2,1,732,6,9,2,5,7,10,8,NA
"1454",9,3,5,"5","2","4",0,0,1,0,775,5,2,8,7,6,0,0,NA
"1455",9,3,6,"5","1","6",6,1,1,1,519,10,6,2,7,9,8,10,NA
"1456",9,3,7,"1","1","6",6,1,1,1,512,1,7,10,6,5,8,1,NA
"1457",9,3,8,"5","2","6",0,0,1,0,859,7,5,9,2,10,8,6,NA
"1458",9,3,9,"5","2","4",0,0,2,1,641,5,8,7,2,9,0,0,NA
"1459",9,3,10,"3","2","6",0,0,2,1,839,3,7,6,10,2,5,8,NA
"1460",9,3,11,"5","2","2",0,0,2,1,873,5,8,6,0,0,0,0,NA
"1461",9,3,12,"5","1","2",1,2,1,1,1274,5,5,2,0,0,0,0,NA
"1462",9,3,13,"4","2","6",0,0,2,1,646,4,8,9,10,6,2,7,NA
"1463",9,3,14,"5","1","4",4,1,1,1,1669,5,9,8,2,5,0,0,NA
"1464",9,3,15,"5","2","4",0,0,2,1,1308,7,2,5,8,9,0,0,NA
"1465",9,3,16,"5","2","2",0,0,2,1,588,5,6,2,0,0,0,0,NA
"1466",9,3,17,"1","1","6",5,2,1,1,563,1,9,10,5,8,1,6,NA
"1467",9,3,18,"1","1","2",1,2,1,1,384,1,1,8,0,0,0,0,NA
"1468",9,3,19,"5","1","4",2,3,2,0,650,5,10,5,2,7,0,0,NA
"1469",9,3,20,"5","2","6",0,0,1,0,526,10,8,7,9,5,6,2,NA
"1470",9,3,21,"3","2","6",0,0,2,1,696,3,9,8,2,10,6,5,NA
"1471",9,3,22,"3","2","6",0,0,2,1,699,3,10,5,9,2,7,6,NA
"1472",9,3,23,"5","1","4",1,4,2,0,1064,9,9,7,10,8,0,0,NA
"1473",9,3,24,"1","1","6",2,5,1,1,428,1,9,1,5,7,8,6,NA
"1474",9,3,25,"5","2","4",0,0,1,0,1364,7,2,9,10,8,0,0,NA
"1475",9,4,1,"4","2","4",0,0,2,1,525,4,2,6,9,7,0,0,NA
"1476",9,4,2,"3","2","2",0,0,2,1,508,3,2,8,0,0,0,0,NA
"1477",9,4,3,"5","1","6",2,5,2,0,1031,10,6,10,8,2,5,9,NA
"1478",9,4,4,"5","1","6",1,6,2,0,1436,6,6,10,2,7,9,8,NA
"1479",9,4,5,"5","1","6",3,4,1,1,689,6,5,9,6,7,10,2,NA
"1480",9,4,6,"5","1","6",1,6,1,1,1332,8,8,2,9,6,7,5,NA
"1481",9,4,7,"5","2","6",0,0,1,0,702,5,9,2,10,6,7,8,NA
"1482",9,4,8,"1","1","4",2,3,1,1,379,1,9,1,7,6,0,0,NA
"1483",9,4,9,"5","1","4",2,3,2,0,917,8,6,8,9,2,0,0,NA
"1484",9,4,10,"5","2","2",0,0,1,0,2388,9,5,2,0,0,0,0,NA
"1485",9,4,11,"5","2","4",0,0,2,1,830,9,10,2,7,5,0,0,NA
"1486",9,4,12,"2","1","4",4,1,1,1,950,2,5,6,9,2,0,0,NA
"1487",9,4,13,"5","1","6",4,3,1,1,623,9,8,10,5,9,2,7,NA
"1488",9,4,14,"3","2","6",0,0,2,1,532,3,10,8,6,2,7,9,NA
"1489",9,4,15,"5","2","4",0,0,2,1,761,6,7,10,8,9,0,0,NA
"1490",9,4,16,"5","1","4",2,3,2,0,771,5,2,5,9,8,0,0,NA
"1491",9,4,17,"3","2","4",0,0,2,1,494,3,8,7,9,2,0,0,NA
"1492",9,4,18,"3","2","6",0,0,2,1,665,3,10,6,8,5,2,9,NA
"1493",9,4,19,"5","1","6",3,4,1,1,893,9,6,5,9,2,8,7,NA
"1494",9,4,20,"5","1","6",5,2,1,1,968,7,10,6,9,8,7,2,NA
"1495",9,4,21,"2","1","4",2,3,1,1,619,2,9,2,7,10,0,0,NA
"1496",9,4,22,"5","1","2",1,2,1,1,614,7,7,9,0,0,0,0,NA
"1497",9,4,23,"5","1","6",6,1,1,1,492,8,9,5,2,7,10,8,NA
"1498",9,4,24,"5","2","2",0,0,2,1,732,6,2,7,0,0,0,0,NA
"1499",9,4,25,"3","2","4",0,0,2,1,520,3,8,2,10,7,0,0,NA
"1500",9,5,1,"5","1","6",6,1,1,1,532,5,10,2,6,8,9,5,NA
"1501",9,5,2,"5","2","4",0,0,2,1,984,7,9,10,2,6,0,0,NA
"1502",9,5,3,"3","2","2",0,0,2,1,1268,3,8,9,0,0,0,0,NA
"1503",9,5,4,"5","2","4",0,0,1,0,1083,6,9,2,10,7,0,0,NA
"1504",9,5,5,"2","1","4",4,1,1,1,713,2,5,6,10,2,0,0,NA
"1505",9,5,6,"5","1","2",1,2,2,0,944,6,6,9,0,0,0,0,NA
"1506",9,5,7,"1","1","6",1,6,1,1,393,1,1,8,7,9,6,10,NA
"1507",9,5,8,"5","1","6",1,6,1,1,872,9,9,8,6,7,10,2,NA
"1508",9,5,9,"5","1","6",3,4,1,1,596,8,9,7,8,5,6,2,NA
"1509",9,5,10,"4","2","6",0,0,2,1,1450,4,5,2,9,6,7,10,NA
"1510",9,5,11,"3","2","4",0,0,2,1,602,3,9,7,6,8,0,0,NA
"1511",9,5,12,"5","1","4",4,1,1,1,667,9,7,10,2,9,0,0,NA
"1512",9,5,13,"5","1","2",2,1,1,1,676,10,2,10,0,0,0,0,NA
"1513",9,5,14,"5","2","6",0,0,2,1,744,6,10,2,7,5,8,9,NA
"1514",9,5,15,"5","1","4",4,1,1,1,484,10,8,2,5,10,0,0,NA
"1515",9,5,16,"3","2","2",0,0,2,1,1381,3,9,10,0,0,0,0,NA
"1516",9,5,17,"2","1","6",2,5,1,1,588,2,6,2,9,10,5,8,NA
"1517",9,5,18,"1","1","4",4,1,1,1,334,1,8,9,6,1,0,0,NA
"1518",9,5,19,"5","1","4",4,1,1,1,409,5,7,2,8,5,0,0,NA
"1519",9,5,20,"4","2","6",0,0,2,1,1096,4,7,10,2,6,8,5,NA
"1520",9,5,21,"5","2","6",0,0,2,1,955,7,10,6,2,9,5,8,NA
"1521",9,5,22,"5","2","2",0,0,1,0,889,5,9,7,0,0,0,0,NA
"1522",9,5,23,"4","2","2",0,0,2,1,698,4,6,9,0,0,0,0,NA
"1523",9,5,24,"5","2","2",0,0,2,1,929,7,9,2,0,0,0,0,NA
"1524",9,5,25,"5","1","2",1,2,1,1,1473,9,9,8,0,0,0,0,NA
"1525",9,6,1,"5","2","4",0,0,2,1,972,10,6,2,8,7,0,0,NA
"1526",9,6,2,"5","2","2",0,0,2,1,921,10,9,2,0,0,0,0,NA
"1527",9,6,3,"4","2","2",0,0,2,1,552,4,6,10,0,0,0,0,NA
"1528",9,6,4,"4","2","6",0,0,2,1,609,4,7,10,5,2,6,9,NA
"1529",9,6,5,"1","1","2",2,1,1,1,445,1,5,1,0,0,0,0,NA
"1530",9,6,6,"5","1","6",1,6,1,1,1338,7,7,5,8,2,9,6,NA
"1531",9,6,7,"4","2","4",0,0,2,1,622,4,2,7,8,5,0,0,NA
"1532",9,6,8,"5","1","6",6,1,1,1,452,8,7,6,5,9,2,8,NA
"1533",9,6,9,"5","2","4",0,0,2,1,603,10,9,7,5,8,0,0,NA
"1534",9,6,10,"2","1","4",4,1,1,1,748,2,8,5,10,2,0,0,NA
"1535",9,6,11,"5","1","4",2,3,2,0,1463,6,5,6,7,2,0,0,NA
"1536",9,6,12,"5","2","4",0,0,2,1,582,9,6,8,7,2,0,0,NA
"1537",9,6,13,"5","2","4",0,0,2,1,1639,6,10,8,7,2,0,0,NA
"1538",9,6,14,"1","1","2",2,1,1,1,634,1,9,1,0,0,0,0,NA
"1539",9,6,15,"3","2","4",0,0,2,1,1466,3,10,2,9,8,0,0,NA
"1540",9,6,16,"5","1","6",6,1,1,1,1166,7,9,6,10,2,8,7,NA
"1541",9,6,17,"5","1","4",1,4,1,1,3112,8,8,9,10,2,0,0,NA
"1542",9,6,18,"3","2","6",0,0,2,1,619,3,10,5,2,7,6,9,NA
"1543",9,6,19,"3","2","6",0,0,2,1,513,3,2,8,9,7,5,6,NA
"1544",9,6,20,"5","1","2",1,2,1,1,640,5,5,8,0,0,0,0,NA
"1545",9,6,21,"1","1","2",2,1,1,1,298,1,6,1,0,0,0,0,NA
"1546",9,6,22,"5","2","6",0,0,2,1,557,9,6,7,2,10,5,8,NA
"1547",9,6,23,"1","1","6",3,4,1,1,277,1,5,6,1,10,9,8,NA
"1548",9,6,24,"3","2","6",0,0,2,1,665,3,2,5,9,10,7,6,NA
"1549",9,6,25,"5","2","4",0,0,2,1,584,9,6,2,10,7,0,0,NA
"1550",9,7,1,"5","1","2",2,1,1,1,480,6,7,6,0,0,0,0,NA
"1551",9,7,2,"4","2","6",0,0,2,1,571,4,5,6,8,7,2,9,NA
"1552",9,7,3,"3","2","2",0,0,2,1,504,3,2,9,0,0,0,0,NA
"1553",9,7,4,"2","1","2",1,2,2,0,856,2,2,10,0,0,0,0,NA
"1554",9,7,5,"5","2","4",0,0,2,1,543,8,7,2,10,5,0,0,NA
"1555",9,7,6,"1","1","6",4,3,1,1,201,1,10,9,5,1,6,8,NA
"1556",9,7,7,"1","1","2",2,1,1,1,260,1,7,1,0,0,0,0,NA
"1557",9,7,8,"2","1","4",4,1,1,1,2676,2,9,10,5,2,0,0,NA
"1558",9,7,9,"3","2","6",0,0,2,1,855,3,5,7,10,9,2,8,NA
"1559",9,7,10,"3","2","2",0,0,2,1,473,3,10,9,0,0,0,0,NA
"1560",9,7,11,"3","2","4",0,0,2,1,464,3,9,8,6,2,0,0,NA
"1561",9,7,12,"3","2","4",0,0,2,1,470,3,2,6,7,10,0,0,NA
"1562",9,7,13,"4","2","2",0,0,2,1,504,4,2,8,0,0,0,0,NA
"1563",9,7,14,"5","1","2",2,1,2,0,424,8,9,8,0,0,0,0,NA
"1564",9,7,15,"2","1","2",2,1,1,1,331,2,10,2,0,0,0,0,NA
"1565",9,7,16,"5","1","2",2,1,1,1,321,9,7,9,0,0,0,0,NA
"1566",9,7,17,"4","2","2",0,0,2,1,392,4,8,10,0,0,0,0,NA
"1567",9,7,18,"5","2","6",0,0,1,0,632,7,6,8,9,2,5,10,NA
"1568",9,7,19,"2","1","6",3,4,2,0,941,2,5,6,2,7,8,10,NA
"1569",9,7,20,"5","1","6",5,2,1,1,357,6,10,9,8,2,6,7,NA
"1570",9,7,21,"1","1","2",1,2,1,1,267,1,1,7,0,0,0,0,NA
"1571",9,7,22,"5","1","2",2,1,1,1,772,10,2,10,0,0,0,0,NA
"1572",9,7,23,"5","2","6",0,0,1,0,404,5,6,10,7,8,9,2,NA
"1573",9,7,24,"3","2","2",0,0,2,1,472,3,10,5,0,0,0,0,NA
"1574",9,7,25,"5","2","2",0,0,2,1,522,8,2,9,0,0,0,0,1
"1575",10,1,1,"5","2","6",0,0,2,1,1521,9,5,10,7,8,6,2,NA
"1576",10,1,2,"5","1","6",2,5,1,1,577,5,2,5,10,8,6,7,NA
"1577",10,1,3,"2","1","4",1,4,1,1,419,2,2,7,5,10,0,0,NA
"1578",10,1,4,"2","1","6",3,4,1,1,449,2,7,8,2,6,5,10,NA
"1579",10,1,5,"5","2","6",0,0,1,0,2429,7,9,8,6,2,5,10,NA
"1580",10,1,6,"3","2","2",0,0,2,1,830,3,8,10,0,0,0,0,NA
"1581",10,1,7,"2","1","4",3,2,1,1,726,2,6,10,2,8,0,0,NA
"1582",10,1,8,"1","1","6",1,6,1,1,774,1,1,8,9,6,5,10,NA
"1583",10,1,9,"5","1","2",1,2,1,1,1803,10,10,2,0,0,0,0,NA
"1584",10,1,10,"5","1","2",1,2,1,1,727,9,9,2,0,0,0,0,NA
"1585",10,1,11,"5","2","4",0,0,2,1,691,6,8,9,5,7,0,0,NA
"1586",10,1,12,"1","1","2",1,2,1,1,731,1,1,10,0,0,0,0,NA
"1587",10,1,13,"4","2","6",0,0,2,1,651,4,6,5,2,7,10,9,NA
"1588",10,1,14,"5","1","6",4,3,1,1,479,10,8,9,5,10,2,7,NA
"1589",10,1,15,"5","2","2",0,0,2,1,816,5,2,6,0,0,0,0,NA
"1590",10,1,16,"1","1","6",6,1,1,1,365,1,7,6,5,10,9,1,NA
"1591",10,1,17,"5","2","4",0,0,2,1,519,6,5,10,8,7,0,0,NA
"1592",10,1,18,"2","1","2",1,2,1,1,534,2,2,9,0,0,0,0,NA
"1593",10,1,19,"5","1","4",4,1,1,1,330,10,8,9,2,10,0,0,NA
"1594",10,1,20,"5","1","6",2,5,1,1,555,10,2,10,8,6,7,5,NA
"1595",10,1,21,"3","2","6",0,0,2,1,468,3,9,8,10,6,5,2,NA
"1596",10,1,22,"5","1","2",1,2,1,1,661,6,6,9,0,0,0,0,NA
"1597",10,1,23,"1","1","4",3,2,1,1,419,1,5,6,1,7,0,0,NA
"1598",10,1,24,"1","1","6",2,5,1,1,385,1,6,1,5,9,10,8,NA
"1599",10,1,25,"2","1","2",2,1,1,1,357,2,10,2,0,0,0,0,NA
"1600",10,2,1,"5","1","2",1,2,1,1,538,9,9,2,0,0,0,0,NA
"1601",10,2,2,"5","2","6",0,0,2,1,531,7,2,6,5,9,10,8,NA
"1602",10,2,3,"5","2","6",0,0,1,0,764,10,5,9,7,8,2,6,NA
"1603",10,2,4,"4","2","2",0,0,1,0,529,4,2,8,0,0,0,0,NA
"1604",10,2,5,"5","2","4",0,0,2,1,549,6,9,10,2,8,0,0,NA
"1605",10,2,6,"5","2","4",0,0,2,1,600,7,8,5,10,2,0,0,NA
"1606",10,2,7,"5","1","2",1,2,2,0,548,6,6,2,0,0,0,0,NA
"1607",10,2,8,"1","1","2",2,1,1,1,385,1,5,1,0,0,0,0,NA
"1608",10,2,9,"5","1","2",2,1,1,1,374,8,10,8,0,0,0,0,NA
"1609",10,2,10,"4","2","4",0,0,2,1,336,4,2,7,5,6,0,0,NA
"1610",10,2,11,"2","1","2",1,2,1,1,566,2,2,7,0,0,0,0,NA
"1611",10,2,12,"1","1","2",2,1,1,1,355,1,10,1,0,0,0,0,NA
"1612",10,2,13,"3","2","2",0,0,2,1,393,3,9,2,0,0,0,0,NA
"1613",10,2,14,"2","1","2",2,1,1,1,349,2,5,2,0,0,0,0,NA
"1614",10,2,15,"4","2","2",0,0,2,1,435,4,5,2,0,0,0,0,NA
"1615",10,2,16,"4","2","2",0,0,2,1,422,4,8,9,0,0,0,0,NA
"1616",10,2,17,"5","1","6",6,1,1,1,659,5,2,8,6,7,9,5,NA
"1617",10,2,18,"5","2","4",0,0,1,0,434,7,5,6,10,2,0,0,NA
"1618",10,2,19,"5","1","6",4,3,1,1,863,8,2,10,9,8,7,6,NA
"1619",10,2,20,"2","1","2",2,1,1,1,384,2,10,2,0,0,0,0,NA
"1620",10,2,21,"5","1","4",3,2,1,1,474,6,10,8,6,2,0,0,NA
"1621",10,2,22,"4","2","6",0,0,2,1,533,4,7,9,6,8,1,10,NA
"1622",10,2,23,"5","1","6",3,4,1,1,734,9,2,7,9,10,6,5,NA
"1623",10,2,24,"5","2","2",0,0,2,1,405,8,2,5,0,0,0,0,NA
"1624",10,2,25,"5","1","4",4,1,1,1,286,5,10,6,2,5,0,0,NA
"1625",10,3,1,"5","1","2",2,1,1,1,329,5,10,5,0,0,0,0,NA
"1626",10,3,2,"5","2","2",0,0,2,1,400,9,6,5,0,0,0,0,NA
"1627",10,3,3,"2","1","6",5,2,1,1,574,2,9,8,5,6,2,7,NA
"1628",10,3,4,"5","1","2",2,1,1,1,347,5,6,5,0,0,0,0,NA
"1629",10,3,5,"5","1","2",1,2,1,1,577,8,8,2,0,0,0,0,NA
"1630",10,3,6,"3","2","4",0,0,2,1,419,3,7,8,2,5,0,0,NA
"1631",10,3,7,"5","1","4",2,3,1,1,603,6,7,6,9,8,0,0,NA
"1632",10,3,8,"5","2","6",0,0,1,0,880,7,2,10,6,5,9,8,NA
"1633",10,3,9,"2","1","2",1,2,1,1,577,2,2,9,0,0,0,0,NA
"1634",10,3,10,"5","1","4",1,4,1,1,579,9,9,6,8,2,0,0,NA
"1635",10,3,11,"5","1","6",2,5,1,1,666,10,8,10,2,9,5,7,NA
"1636",10,3,12,"5","2","6",0,0,1,0,1389,8,10,9,2,5,6,7,NA
"1637",10,3,13,"2","1","6",6,1,1,1,548,2,10,8,6,7,5,2,NA
"1638",10,3,14,"4","2","4",0,0,2,1,535,4,5,10,2,9,0,0,NA
"1639",10,3,15,"5","2","2",0,0,2,1,645,10,8,9,0,0,0,0,NA
"1640",10,3,16,"5","2","4",0,0,2,1,724,8,10,7,9,2,0,0,NA
"1641",10,3,17,"5","1","2",2,1,1,1,524,6,8,6,0,0,0,0,NA
"1642",10,3,18,"5","1","6",5,2,1,1,710,9,8,6,10,5,9,2,NA
"1643",10,3,19,"5","2","6",0,0,1,0,567,9,5,10,6,2,8,7,NA
"1644",10,3,20,"5","2","6",0,0,2,1,671,10,2,5,6,9,8,7,NA
"1645",10,3,21,"3","2","6",0,0,2,1,499,3,9,5,1,7,8,6,NA
"1646",10,3,22,"5","1","6",4,3,1,1,844,10,5,2,6,10,7,8,NA
"1647",10,3,23,"5","2","2",0,0,2,1,414,5,6,2,0,0,0,0,NA
"1648",10,3,24,"5","2","4",0,0,1,0,806,10,2,5,6,7,0,0,NA
"1649",10,3,25,"5","1","2",1,2,1,1,1226,10,10,7,0,0,0,0,NA
"1650",10,4,1,"4","2","4",0,0,2,1,459,4,2,6,8,7,0,0,NA
"1651",10,4,2,"3","2","2",0,0,2,1,396,3,6,2,0,0,0,0,NA
"1652",10,4,3,"5","1","2",2,1,1,1,480,6,2,6,0,0,0,0,NA
"1653",10,4,4,"5","2","2",0,0,2,1,448,5,8,2,0,0,0,0,NA
"1654",10,4,5,"2","1","6",5,2,1,1,427,2,8,7,10,6,2,9,NA
"1655",10,4,6,"1","1","6",5,2,1,1,824,1,8,9,7,10,1,6,NA
"1656",10,4,7,"3","2","2",0,0,2,1,571,3,9,1,0,0,0,0,NA
"1657",10,4,8,"5","2","4",0,0,2,1,509,8,7,6,5,2,0,0,NA
"1658",10,4,9,"1","1","2",1,2,1,1,540,1,1,6,0,0,0,0,NA
"1659",10,4,10,"4","2","2",0,0,2,1,411,4,8,9,0,0,0,0,NA
"1660",10,4,11,"5","1","2",2,1,1,1,366,5,9,5,0,0,0,0,NA
"1661",10,4,12,"5","2","4",0,0,2,1,521,6,9,2,7,10,0,0,NA
"1662",10,4,13,"4","2","4",0,0,2,1,429,4,5,10,8,2,0,0,NA
"1663",10,4,14,"5","2","4",0,0,2,1,516,7,2,10,5,6,0,0,NA
"1664",10,4,15,"5","1","4",1,4,1,1,568,5,5,1,10,9,0,0,NA
"1665",10,4,16,"5","1","2",1,2,1,1,341,10,10,8,0,0,0,0,NA
"1666",10,4,17,"1","1","6",5,2,1,1,662,1,5,8,6,7,1,10,NA
"1667",10,4,18,"3","2","2",0,0,2,1,511,3,7,2,0,0,0,0,NA
"1668",10,4,19,"1","1","6",6,1,1,1,377,1,7,10,8,5,9,1,NA
"1669",10,4,20,"5","2","4",0,0,2,1,434,6,2,7,9,8,0,0,NA
"1670",10,4,21,"5","1","6",2,5,1,1,559,9,2,9,8,6,10,7,NA
"1671",10,4,22,"5","1","6",5,2,1,1,391,9,6,2,5,7,9,8,NA
"1672",10,4,23,"5","1","2",2,1,1,1,315,8,2,8,0,0,0,0,NA
"1673",10,4,24,"5","2","4",0,0,2,1,440,10,2,9,6,7,0,0,NA
"1674",10,4,25,"5","2","4",0,0,2,1,464,9,7,10,8,2,0,0,NA
"1675",10,5,1,"3","2","6",0,0,2,1,435,3,6,10,5,7,2,9,NA
"1676",10,5,2,"2","1","6",2,5,1,1,384,2,6,2,7,10,5,9,NA
"1677",10,5,3,"5","1","6",5,2,1,1,591,8,2,6,9,5,8,10,NA
"1678",10,5,4,"5","1","6",5,2,1,1,405,9,8,2,5,6,9,10,NA
"1679",10,5,5,"5","2","2",0,0,2,1,345,8,9,2,0,0,0,0,NA
"1680",10,5,6,"3","2","6",0,0,2,1,490,3,8,7,2,10,5,9,NA
"1681",10,5,7,"5","1","4",1,4,2,0,559,6,6,7,10,2,0,0,NA
"1682",10,5,8,"1","1","4",2,3,1,1,466,1,10,1,6,5,0,0,NA
"1683",10,5,9,"5","2","4",0,0,2,1,472,6,8,7,5,10,0,0,NA
"1684",10,5,10,"5","1","4",3,2,1,1,350,7,2,8,7,10,0,0,NA
"1685",10,5,11,"5","1","4",3,2,1,1,569,9,6,8,9,2,0,0,NA
"1686",10,5,12,"3","2","2",0,0,2,1,390,3,2,7,0,0,0,0,NA
"1687",10,5,13,"5","1","4",4,1,1,1,304,7,5,9,2,7,0,0,NA
"1688",10,5,14,"1","1","6",3,4,1,1,482,1,9,7,1,5,10,8,NA
"1689",10,5,15,"5","2","2",0,0,2,1,355,10,8,1,0,0,0,0,NA
"1690",10,5,16,"2","1","4",3,2,2,0,526,2,9,7,2,6,0,0,NA
"1691",10,5,17,"5","1","4",3,2,1,1,434,7,2,9,7,5,0,0,NA
"1692",10,5,18,"2","1","4",1,4,1,1,490,2,2,9,10,5,0,0,NA
"1693",10,5,19,"5","2","6",0,0,1,0,533,10,9,6,2,5,8,7,NA
"1694",10,5,20,"5","1","4",3,2,1,1,488,7,2,8,7,10,0,0,NA
"1695",10,5,21,"5","1","2",2,1,1,1,392,10,2,10,0,0,0,0,NA
"1696",10,5,22,"5","1","2",1,2,1,1,429,7,7,2,0,0,0,0,NA
"1697",10,5,23,"5","2","6",0,0,2,1,730,9,5,2,6,10,7,8,NA
"1698",10,5,24,"5","1","2",1,2,1,1,384,5,5,2,0,0,0,0,NA
"1699",10,5,25,"5","2","2",0,0,2,1,677,6,2,8,0,0,0,0,NA
"1700",10,6,1,"5","1","4",4,1,1,1,359,6,8,9,2,6,0,0,NA
"1701",10,6,2,"5","1","6",4,3,1,1,614,9,7,10,6,9,2,5,NA
"1702",10,6,3,"3","2","6",0,0,2,1,476,3,10,7,8,2,9,5,NA
"1703",10,6,4,"5","1","6",6,1,1,1,391,9,6,5,2,8,7,9,NA
"1704",10,6,5,"1","1","2",1,2,1,1,363,1,1,10,0,0,0,0,NA
"1705",10,6,6,"5","2","4",0,0,2,1,485,7,2,9,5,10,0,0,NA
"1706",10,6,7,"5","1","2",2,1,1,1,358,6,5,6,0,0,0,0,NA
"1707",10,6,8,"5","1","4",1,4,1,1,480,7,7,6,2,5,0,0,NA
"1708",10,6,9,"5","1","4",3,2,1,1,293,7,6,9,7,2,0,0,NA
"1709",10,6,10,"1","1","2",1,2,1,1,349,1,1,10,0,0,0,0,NA
"1710",10,6,11,"5","1","4",1,4,1,1,504,9,9,2,8,10,0,0,NA
"1711",10,6,12,"5","2","2",0,0,2,1,360,7,8,2,0,0,0,0,NA
"1712",10,6,13,"4","2","2",0,0,2,1,397,4,5,6,0,0,0,0,NA
"1713",10,6,14,"1","1","2",2,1,1,1,353,1,8,1,0,0,0,0,NA
"1714",10,6,15,"5","1","4",3,2,1,1,444,5,7,8,5,2,0,0,NA
"1715",10,6,16,"5","2","4",0,0,2,1,419,10,9,5,7,2,0,0,NA
"1716",10,6,17,"5","2","2",0,0,2,1,550,5,10,8,0,0,0,0,NA
"1717",10,6,18,"5","2","6",0,0,2,1,478,7,8,2,6,5,10,9,NA
"1718",10,6,19,"5","2","6",0,0,2,1,362,7,2,8,9,6,5,10,NA
"1719",10,6,20,"4","2","4",0,0,2,1,372,4,10,2,6,9,0,0,NA
"1720",10,6,21,"5","1","6",3,4,1,1,756,10,7,2,10,5,8,6,NA
"1721",10,6,22,"5","1","6",5,2,1,1,436,7,5,9,2,6,7,8,NA
"1722",10,6,23,"4","2","6",0,0,2,1,384,4,9,2,6,10,8,5,NA
"1723",10,6,24,"4","2","6",0,0,2,1,415,4,7,10,6,5,2,8,NA
"1724",10,6,25,"5","1","2",1,2,1,1,579,10,10,2,0,0,0,0,NA
"1725",10,7,1,"5","1","6",5,2,1,1,402,9,10,7,5,2,9,6,NA
"1726",10,7,2,"4","2","6",0,0,2,1,416,4,8,9,7,5,10,2,NA
"1727",10,7,3,"5","1","4",3,2,1,1,344,9,7,10,9,8,0,0,NA
"1728",10,7,4,"5","2","4",0,0,2,1,612,5,10,9,8,2,0,0,NA
"1729",10,7,5,"3","2","2",0,0,2,1,383,3,2,5,0,0,0,0,NA
"1730",10,7,6,"5","1","4",3,2,1,1,584,8,6,10,8,2,0,0,NA
"1731",10,7,7,"5","2","6",0,0,2,1,623,9,2,7,6,5,8,10,NA
"1732",10,7,8,"5","1","6",5,2,1,1,804,5,8,7,2,10,5,9,NA
"1733",10,7,9,"3","2","6",0,0,2,1,450,3,8,2,5,6,7,10,NA
"1734",10,7,10,"1","1","2",2,1,1,1,324,1,8,1,0,0,0,0,NA
"1735",10,7,11,"3","2","4",0,0,2,1,431,3,8,6,2,9,0,0,NA
"1736",10,7,12,"1","1","2",2,1,1,1,306,1,8,1,0,0,0,0,NA
"1737",10,7,13,"5","1","4",2,3,2,0,350,6,2,6,5,9,0,0,NA
"1738",10,7,14,"2","1","2",2,1,1,1,372,2,9,2,0,0,0,0,NA
"1739",10,7,15,"5","2","2",0,0,2,1,313,10,9,6,0,0,0,0,NA
"1740",10,7,16,"1","1","2",1,2,1,1,496,1,1,9,0,0,0,0,NA
"1741",10,7,17,"5","2","2",0,0,2,1,368,10,8,2,0,0,0,0,NA
"1742",10,7,18,"5","1","2",2,1,1,1,357,9,10,9,0,0,0,0,NA
"1743",10,7,19,"3","2","4",0,0,2,1,385,3,7,10,6,5,0,0,NA
"1744",10,7,20,"5","1","6",5,2,1,1,608,6,5,8,2,7,6,10,NA
"1745",10,7,21,"5","1","4",2,3,1,1,593,7,9,7,6,2,0,0,NA
"1746",10,7,22,"4","2","4",0,0,2,1,434,4,9,2,8,6,0,0,NA
"1747",10,7,23,"1","1","6",2,5,1,1,447,1,5,1,7,10,9,6,NA
"1748",10,7,24,"1","1","6",3,4,1,1,395,1,8,5,1,7,9,6,NA
"1749",10,7,25,"2","1","4",4,1,1,1,372,2,6,9,8,2,0,0,1
"1750",11,1,1,"5","1","2",1,2,1,1,2016,6,6,2,0,0,0,0,NA
"1751",11,1,2,"2","1","6",3,4,1,1,1515,2,9,7,2,10,6,5,NA
"1752",11,1,3,"5","1","4",3,2,1,1,1144,6,10,9,6,2,0,0,NA
"1753",11,1,4,"3","2","6",0,0,2,1,1257,3,2,5,6,10,7,8,NA
"1754",11,1,5,"5","1","6",2,5,1,1,1413,8,7,8,5,2,6,9,NA
"1755",11,1,6,"2","1","2",1,2,1,1,2849,2,2,8,0,0,0,0,NA
"1756",11,1,7,"5","1","4",4,1,1,1,793,6,7,2,8,6,0,0,NA
"1757",11,1,8,"5","1","2",1,2,1,1,830,9,9,2,0,0,0,0,NA
"1758",11,1,9,"1","1","2",2,1,1,1,609,1,5,1,0,0,0,0,NA
"1759",11,1,10,"4","2","2",0,0,2,1,685,4,9,2,0,0,0,0,NA
"1760",11,1,11,"5","2","4",0,0,2,1,1003,5,6,2,9,10,0,0,NA
"1761",11,1,12,"5","2","4",0,0,1,0,1101,5,10,2,6,9,0,0,NA
"1762",11,1,13,"5","1","2",1,2,1,1,1412,8,8,10,0,0,0,0,NA
"1763",11,1,14,"5","1","2",1,2,1,1,672,8,8,10,0,0,0,0,NA
"1764",11,1,15,"5","2","6",0,0,2,1,1333,6,9,2,7,10,8,5,NA
"1765",11,1,16,"4","2","6",0,0,2,1,1150,4,7,2,8,9,10,6,NA
"1766",11,1,17,"4","2","2",0,0,2,1,1380,4,10,2,0,0,0,0,NA
"1767",11,1,18,"5","1","2",1,2,1,1,1362,5,5,2,0,0,0,0,NA
"1768",11,1,19,"3","2","4",0,0,2,1,1157,3,6,2,10,5,0,0,NA
"1769",11,1,20,"1","1","4",2,3,1,1,1089,1,8,1,10,5,0,0,NA
"1770",11,1,21,"2","1","6",1,6,1,1,1205,2,2,9,7,5,6,8,NA
"1771",11,1,22,"4","2","2",0,0,2,1,1321,4,7,5,0,0,0,0,NA
"1772",11,1,23,"5","1","6",3,4,1,1,1251,5,8,2,5,7,10,6,NA
"1773",11,1,24,"5","2","2",0,0,2,1,949,10,7,2,0,0,0,0,NA
"1774",11,1,25,"5","2","4",0,0,2,1,1001,6,8,2,10,9,0,0,NA
"1775",11,2,1,"5","2","4",0,0,2,1,857,10,9,8,2,6,0,0,NA
"1776",11,2,2,"5","2","4",0,0,2,1,1712,6,7,9,2,8,0,0,NA
"1777",11,2,3,"5","1","2",2,1,1,1,7392,5,9,5,0,0,0,0,NA
"1778",11,2,4,"5","1","6",3,4,1,1,936,5,2,10,5,8,9,7,NA
"1779",11,2,5,"4","2","6",0,0,2,1,690,4,9,6,5,7,2,10,NA
"1780",11,2,6,"4","2","6",0,0,2,1,725,4,7,10,6,2,9,8,NA
"1781",11,2,7,"5","2","6",0,0,1,0,1912,8,5,2,7,6,10,9,NA
"1782",11,2,8,"5","1","2",1,2,1,1,928,7,7,6,0,0,0,0,NA
