"","Subnum","Block","Trial","Old","testcdisgard","Setsize","Serpos","Lag","Response","Correctness","Side","RT","WhichProbe","Stimkind","FileCondi","prob1","prob2","prob3","prob4","prob5","prob6","prob7","prob8"
"1",1,2,1,2,1,8,0,0,2,1,1,1537,1,1,"MIX2",3,4,1,2,63,64,65,66
"2",1,2,2,2,1,8,0,0,1,1,0,1563,6,1,"MIX2",1,3,2,4,67,68,69,70
"3",1,2,3,1,1,8,8,1,2,0,1,694,3,1,"MIX2",1,4,2,3,71,72,73,74
"4",1,2,4,1,1,8,4,5,2,0,1,1506,3,1,"MIX2",4,1,3,2,75,76,77,78
"5",1,2,5,2,1,2,0,0,2,1,1,1768,80,0,"MIX2",4,79,NA,NA,NA,NA,NA,NA
"6",1,2,6,1,1,2,2,1,2,1,0,1308,3,1,"MIX2",3,81,NA,NA,NA,NA,NA,NA
"7",1,2,7,2,1,2,0,0,2,1,1,1036,2,1,"MIX2",1,82,NA,NA,NA,NA,NA,NA
"8",1,2,8,2,1,4,0,0,1,1,0,1192,85,0,"MIX2",1,4,83,84,NA,NA,NA,NA
"9",1,2,9,1,1,2,2,1,1,1,1,1092,1,1,"MIX2",1,86,NA,NA,NA,NA,NA,NA
"10",1,2,10,2,1,4,0,0,1,1,0,1207,89,0,"MIX2",1,2,87,88,NA,NA,NA,NA
"11",1,2,11,2,1,8,0,0,1,0,1,1302,1,1,"MIX2",2,1,4,3,90,91,92,93
"12",1,2,12,1,1,2,2,1,1,1,1,1068,94,0,"MIX2",2,94,NA,NA,NA,NA,NA,NA
"13",1,2,13,2,1,2,0,0,1,1,0,1083,96,0,"MIX2",2,95,NA,NA,NA,NA,NA,NA
"14",1,2,14,1,1,2,2,1,2,1,0,939,1,1,"MIX2",1,97,NA,NA,NA,NA,NA,NA
"15",1,2,15,2,1,2,0,0,2,1,1,1808,99,0,"MIX2",2,98,NA,NA,NA,NA,NA,NA
"16",1,2,16,1,1,2,2,1,2,1,0,1579,3,1,"MIX2",3,100,NA,NA,NA,NA,NA,NA
"17",1,2,17,1,1,4,1,4,2,1,0,1797,101,0,"MIX2",1,3,101,102,NA,NA,NA,NA
"18",1,2,18,1,1,4,1,4,1,1,1,1509,2,1,"MIX2",2,4,103,104,NA,NA,NA,NA
"19",1,2,19,2,1,2,0,0,1,1,0,1395,106,0,"MIX2",2,105,NA,NA,NA,NA,NA,NA
"20",1,2,20,2,1,2,0,0,1,1,0,1031,5,1,"MIX2",1,107,NA,NA,NA,NA,NA,NA
"21",1,2,21,2,1,2,0,0,1,1,0,1041,109,0,"MIX2",4,108,NA,NA,NA,NA,NA,NA
"22",1,2,22,2,1,8,0,0,1,1,0,1014,114,0,"MIX2",4,2,1,3,110,111,112,113
"23",1,2,23,1,1,4,3,2,2,1,0,949,4,1,"MIX2",4,2,115,116,NA,NA,NA,NA
"24",1,2,24,2,1,2,0,0,1,0,1,938,4,1,"MIX2",1,117,NA,NA,NA,NA,NA,NA
"25",1,3,1,2,1,2,0,0,1,1,0,882,119,0,"MIX2",3,118,NA,NA,NA,NA,NA,NA
"26",1,3,2,2,1,8,0,0,2,1,1,2135,124,0,"MIX2",3,4,2,1,120,121,122,123
"27",1,3,3,2,1,4,0,0,1,1,0,872,127,0,"MIX2",3,1,125,126,NA,NA,NA,NA
"28",1,3,4,2,1,2,0,0,2,1,1,808,129,0,"MIX2",4,128,NA,NA,NA,NA,NA,NA
"29",1,3,5,2,1,8,0,0,2,0,0,1809,8,1,"MIX2",4,1,3,2,130,131,132,133
"30",1,3,6,2,1,2,0,0,2,1,1,1060,135,0,"MIX2",1,134,NA,NA,NA,NA,NA,NA
"31",1,3,7,1,1,8,8,1,2,1,0,1090,3,1,"MIX2",1,3,2,4,136,137,138,139
"32",1,3,8,2,1,8,0,0,1,1,0,1245,144,0,"MIX2",2,1,3,4,140,141,142,143
"33",1,3,9,2,1,8,0,0,1,1,0,835,149,0,"MIX2",4,1,3,2,145,146,147,148
"34",1,3,10,1,1,4,2,3,2,1,0,1184,151,0,"MIX2",2,1,150,151,NA,NA,NA,NA
"35",1,3,11,2,1,2,0,0,1,1,0,619,5,1,"MIX2",1,152,NA,NA,NA,NA,NA,NA
"36",1,3,12,2,1,4,0,0,1,1,0,714,155,0,"MIX2",4,2,153,154,NA,NA,NA,NA
"37",1,3,13,1,1,2,2,1,1,1,1,881,156,0,"MIX2",2,156,NA,NA,NA,NA,NA,NA
"38",1,3,14,1,1,8,2,7,1,1,1,1438,2,1,"MIX2",4,3,2,1,157,158,159,160
"39",1,3,15,2,1,8,0,0,2,1,1,1605,1,1,"MIX2",4,3,1,2,161,162,163,164
"40",1,3,16,1,1,2,2,1,1,1,1,831,165,0,"MIX2",3,165,NA,NA,NA,NA,NA,NA
"41",1,3,17,2,1,8,0,0,2,0,0,1157,5,1,"MIX2",2,3,4,1,166,167,168,169
"42",1,3,18,2,1,8,0,0,1,1,0,912,174,0,"MIX2",4,1,3,2,170,171,172,173
"43",1,3,19,1,1,8,7,2,2,1,0,953,2,1,"MIX2",3,1,4,2,175,176,177,178
"44",1,3,20,2,1,8,0,0,1,1,0,1427,5,1,"MIX2",3,1,4,2,179,180,181,182
"45",1,3,21,1,1,2,2,1,1,1,1,669,183,0,"MIX2",2,183,NA,NA,NA,NA,NA,NA
"46",1,3,22,1,1,8,2,7,2,1,0,970,185,0,"MIX2",2,1,4,3,184,185,186,187
"47",1,3,23,2,1,4,0,0,1,1,0,698,190,0,"MIX2",1,2,188,189,NA,NA,NA,NA
"48",1,3,24,2,1,4,0,0,2,1,1,806,3,1,"MIX2",2,3,191,192,NA,NA,NA,NA
"49",1,4,1,1,1,2,1,2,2,1,0,966,193,0,"MIX2",1,193,NA,NA,NA,NA,NA,NA
"50",1,4,2,2,1,8,0,0,2,1,1,1038,198,0,"MIX2",1,4,3,2,194,195,196,197
"51",1,4,3,2,1,8,0,0,1,1,0,933,6,1,"MIX2",1,3,4,2,199,200,201,202
"52",1,4,4,1,1,8,8,1,1,1,1,1215,205,0,"MIX2",2,3,1,4,203,204,205,206
"53",1,4,5,2,1,2,0,0,2,1,1,890,2,1,"MIX2",3,207,NA,NA,NA,NA,NA,NA
"54",1,4,6,2,1,4,0,0,2,1,1,1045,210,0,"MIX2",1,4,208,209,NA,NA,NA,NA
"55",1,4,7,1,1,4,1,4,1,1,1,1595,2,1,"MIX2",4,2,211,212,NA,NA,NA,NA
"56",1,4,8,2,1,8,0,0,2,1,1,1371,217,0,"MIX2",4,1,3,2,213,214,215,216
"57",1,4,9,1,1,2,1,2,2,1,0,1095,218,0,"MIX2",1,218,NA,NA,NA,NA,NA,NA
"58",1,4,10,2,1,8,0,0,1,1,0,2130,8,1,"MIX2",4,1,2,3,219,220,221,222
"59",1,4,11,2,1,8,0,0,1,1,0,1052,227,0,"MIX2",2,4,1,3,223,224,225,226
"60",1,4,12,2,1,4,0,0,1,1,0,1083,6,1,"MIX2",4,2,228,229,NA,NA,NA,NA
"61",1,4,13,1,1,4,2,3,1,1,1,1079,231,0,"MIX2",3,4,230,231,NA,NA,NA,NA
"62",1,4,14,1,1,4,3,2,1,1,1,1148,232,0,"MIX2",4,2,232,233,NA,NA,NA,NA
"63",1,4,15,2,1,8,0,0,2,1,1,811,238,0,"MIX2",3,2,4,1,234,235,236,237
"64",1,4,16,2,1,8,0,0,1,1,0,826,243,0,"MIX2",4,2,3,1,239,240,241,242
"65",1,4,17,2,1,4,0,0,2,1,1,1641,4,1,"MIX2",4,3,244,245,NA,NA,NA,NA
"66",1,4,18,2,1,4,0,0,1,1,0,670,248,0,"MIX2",3,4,246,247,NA,NA,NA,NA
"67",1,4,19,1,1,8,1,8,1,1,1,1204,252,0,"MIX2",1,2,3,4,249,250,251,252
"68",1,4,20,1,1,4,1,4,1,1,1,951,3,1,"MIX2",2,3,253,254,NA,NA,NA,NA
"69",1,4,21,2,1,4,0,0,1,1,0,1240,5,1,"MIX2",2,1,255,256,NA,NA,NA,NA
"70",1,4,22,1,1,8,5,4,1,1,1,1092,260,0,"MIX2",3,2,4,1,257,258,259,260
"71",1,4,23,1,1,2,2,1,2,1,0,738,261,0,"MIX2",1,261,NA,NA,NA,NA,NA,NA
"72",1,4,24,2,1,8,0,0,2,1,1,941,2,1,"MIX2",3,4,2,1,262,263,264,265
"73",1,5,1,1,1,4,2,3,1,1,1,1159,4,1,"MIX2",3,4,266,267,NA,NA,NA,NA
"74",1,5,2,2,1,2,0,0,1,1,0,1035,8,1,"MIX2",2,268,NA,NA,NA,NA,NA,NA
"75",1,5,3,2,1,8,0,0,2,1,1,841,4,1,"MIX2",1,4,2,3,269,270,271,272
"76",1,5,4,1,1,2,1,2,2,0,1,980,4,1,"MIX2",4,273,NA,NA,NA,NA,NA,NA
"77",1,5,5,2,1,2,0,0,2,1,1,896,1,1,"MIX2",2,274,NA,NA,NA,NA,NA,NA
"78",1,5,6,1,1,8,5,4,2,0,1,1396,1,1,"MIX2",2,1,3,4,275,276,277,278
"79",1,5,7,2,1,8,0,0,2,1,1,821,4,1,"MIX2",2,1,3,4,279,280,281,282
"80",1,5,8,1,1,4,4,1,1,1,1,772,4,1,"MIX2",1,4,283,284,NA,NA,NA,NA
"81",1,5,9,2,1,8,0,0,1,1,0,1046,5,1,"MIX2",1,2,4,3,285,286,287,288
"82",1,5,10,1,1,2,1,2,2,1,0,856,289,0,"MIX2",2,289,NA,NA,NA,NA,NA,NA
"83",1,5,11,2,1,8,0,0,2,1,1,774,294,0,"MIX2",2,3,1,4,290,291,292,293
"84",1,5,12,2,1,2,0,0,1,1,0,753,296,0,"MIX2",2,295,NA,NA,NA,NA,NA,NA
"85",1,5,13,2,1,8,0,0,2,1,1,994,3,1,"MIX2",3,2,4,1,297,298,299,300
"86",1,5,14,1,1,8,7,2,1,1,1,922,302,0,"MIX2",3,2,4,1,301,302,303,304
"87",1,5,15,2,1,8,0,0,2,1,1,838,3,1,"MIX2",1,4,2,3,305,306,307,308
"88",1,5,16,1,1,2,1,2,2,1,0,904,2,1,"MIX2",2,309,NA,NA,NA,NA,NA,NA
"89",1,5,17,1,1,8,6,3,2,1,0,1276,2,1,"MIX2",3,4,2,1,310,311,312,313
"90",1,5,18,1,1,4,3,2,2,1,0,985,1,1,"MIX2",1,2,314,315,NA,NA,NA,NA
"91",1,5,19,2,1,2,0,0,2,1,1,1087,317,0,"MIX2",4,316,NA,NA,NA,NA,NA,NA
"92",1,5,20,2,1,2,0,0,1,1,0,910,319,0,"MIX2",2,318,NA,NA,NA,NA,NA,NA
"93",1,5,21,2,1,8,0,0,1,1,0,1257,324,0,"MIX2",2,3,4,1,320,321,322,323
"94",1,5,22,2,1,4,0,0,2,1,1,1015,1,1,"MIX2",3,2,325,326,NA,NA,NA,NA
"95",1,5,23,1,1,8,5,4,2,1,0,814,1,1,"MIX2",4,3,1,2,327,328,329,330
"96",1,5,24,2,1,2,0,0,1,1,0,721,8,1,"MIX2",3,331,NA,NA,NA,NA,NA,NA
"97",1,6,1,1,1,2,1,2,2,1,0,869,332,0,"MIX2",3,332,NA,NA,NA,NA,NA,NA
"98",1,6,2,1,1,4,3,2,2,1,0,787,334,0,"MIX2",3,2,333,334,NA,NA,NA,NA
"99",1,6,3,2,1,4,0,0,1,1,0,826,7,1,"MIX2",2,3,335,336,NA,NA,NA,NA
"100",1,6,4,1,1,2,2,1,2,0,1,1161,1,1,"MIX2",1,337,NA,NA,NA,NA,NA,NA
"101",1,6,5,2,1,2,0,0,1,1,0,647,8,1,"MIX2",3,338,NA,NA,NA,NA,NA,NA
"102",1,6,6,1,1,4,3,2,2,1,0,845,340,0,"MIX2",3,4,339,340,NA,NA,NA,NA
"103",1,6,7,2,1,8,0,0,2,1,1,1197,1,1,"MIX2",3,4,1,2,341,342,343,344
"104",1,6,8,2,1,2,0,0,1,1,0,792,346,0,"MIX2",1,345,NA,NA,NA,NA,NA,NA
"105",1,6,9,2,1,4,0,0,2,1,1,655,349,0,"MIX2",2,3,347,348,NA,NA,NA,NA
"106",1,6,10,1,1,4,4,1,2,1,0,780,350,0,"MIX2",4,1,350,351,NA,NA,NA,NA
"107",1,6,11,1,1,2,2,1,1,1,1,664,1,1,"MIX2",1,352,NA,NA,NA,NA,NA,NA
"108",1,6,12,1,1,2,2,1,2,1,0,745,353,0,"MIX2",1,353,NA,NA,NA,NA,NA,NA
"109",1,6,13,1,1,2,1,2,1,1,1,822,354,0,"MIX2",4,354,NA,NA,NA,NA,NA,NA
"110",1,6,14,2,1,2,0,0,1,1,0,1361,5,1,"MIX2",1,355,NA,NA,NA,NA,NA,NA
"111",1,6,15,1,1,4,2,3,2,0,1,1025,3,1,"MIX2",1,3,356,357,NA,NA,NA,NA
"112",1,6,16,2,1,8,0,0,1,1,0,951,5,1,"MIX2",3,1,2,4,358,359,360,361
"113",1,6,17,2,1,2,0,0,1,1,0,827,363,0,"MIX2",1,362,NA,NA,NA,NA,NA,NA
"114",1,6,18,2,1,8,0,0,1,1,0,911,8,1,"MIX2",1,3,4,2,364,365,366,367
"115",1,6,19,2,1,8,0,0,2,1,1,937,372,0,"MIX2",3,4,1,2,368,369,370,371
"116",1,6,20,2,1,2,0,0,2,1,1,862,374,0,"MIX2",1,373,NA,NA,NA,NA,NA,NA
"117",1,6,21,2,1,4,0,0,1,1,0,779,6,1,"MIX2",1,2,375,376,NA,NA,NA,NA
"118",1,6,22,1,1,4,3,2,1,1,1,1561,378,0,"MIX2",4,2,377,378,NA,NA,NA,NA
"119",1,6,23,2,1,8,0,0,2,1,1,1267,383,0,"MIX2",4,1,2,3,379,380,381,382
"120",1,6,24,1,1,8,8,1,2,1,0,1063,386,0,"MIX2",4,3,1,2,384,385,386,387
"121",1,7,1,1,1,4,1,4,2,1,0,1040,388,0,"MIX2",2,3,388,389,NA,NA,NA,NA
"122",1,7,2,1,1,8,6,3,2,1,0,878,391,0,"MIX2",1,4,3,2,390,391,392,393
"123",1,7,3,1,1,4,4,1,1,1,1,850,394,0,"MIX2",3,1,394,395,NA,NA,NA,NA
"124",1,7,4,2,1,8,0,0,1,1,0,936,400,0,"MIX2",2,3,1,4,396,397,398,399
"125",1,7,5,2,1,8,0,0,2,1,1,1595,2,1,"MIX2",4,1,3,2,401,402,403,404
"126",1,7,6,2,1,8,0,0,1,1,0,755,409,0,"MIX2",3,1,4,2,405,406,407,408
"127",1,7,7,1,1,4,2,3,2,1,0,1915,4,1,"MIX2",4,1,410,411,NA,NA,NA,NA
"128",1,7,8,2,1,2,0,0,2,1,1,1009,413,0,"MIX2",3,412,NA,NA,NA,NA,NA,NA
"129",1,7,9,2,1,8,0,0,2,1,1,1433,4,1,"MIX2",4,1,3,2,414,415,416,417
"130",1,7,10,1,1,2,2,1,1,1,1,835,418,0,"MIX2",1,418,NA,NA,NA,NA,NA,NA
"131",1,7,11,1,1,4,3,2,1,1,1,1241,419,0,"MIX2",4,2,419,420,NA,NA,NA,NA
"132",1,7,12,2,1,4,0,0,2,1,1,823,3,1,"MIX2",3,2,421,422,NA,NA,NA,NA
"133",1,7,13,1,1,4,4,1,1,1,1,790,4,1,"MIX2",4,2,423,424,NA,NA,NA,NA
"134",1,7,14,1,1,8,4,5,2,1,0,838,427,0,"MIX2",2,3,1,4,425,426,427,428
"135",1,7,15,2,1,8,0,0,2,1,1,1252,4,1,"MIX2",3,1,2,4,429,430,431,432
"136",1,7,16,1,1,2,2,1,1,1,1,678,433,0,"MIX2",2,433,NA,NA,NA,NA,NA,NA
"137",1,7,17,2,1,2,0,0,2,1,1,750,1,1,"MIX2",3,434,NA,NA,NA,NA,NA,NA
"138",1,7,18,2,1,4,0,0,1,1,0,846,437,0,"MIX2",3,2,435,436,NA,NA,NA,NA
"139",1,7,19,2,1,8,0,0,1,1,0,894,8,1,"MIX2",3,1,2,4,438,439,440,441
"140",1,7,20,1,1,8,6,3,2,1,0,979,442,0,"MIX2",1,4,3,2,442,443,444,445
"141",1,7,21,2,1,4,0,0,1,1,0,995,448,0,"MIX2",3,1,446,447,NA,NA,NA,NA
"142",1,7,22,2,1,8,0,0,1,1,0,740,6,1,"MIX2",1,4,3,2,449,450,451,452
"143",1,7,23,1,1,4,3,2,1,1,1,749,1,1,"MIX2",1,2,453,454,NA,NA,NA,NA
"144",1,7,24,2,1,4,0,0,2,1,1,935,2,1,"MIX2",1,3,455,456,NA,NA,NA,NA
"145",1,8,1,2,1,2,0,0,1,1,0,1212,7,1,"MIX2",1,457,NA,NA,NA,NA,NA,NA
"146",1,8,2,1,1,8,5,4,2,1,0,931,459,0,"MIX2",1,4,2,3,458,459,460,461
"147",1,8,3,2,1,8,0,0,2,1,1,2165,2,1,"MIX2",2,4,1,3,462,463,464,465
"148",1,8,4,1,1,2,2,1,1,1,1,754,1,1,"MIX2",1,466,NA,NA,NA,NA,NA,NA
"149",1,8,5,1,1,2,2,1,2,1,0,519,1,1,"MIX2",1,467,NA,NA,NA,NA,NA,NA
"150",1,8,6,1,1,2,1,2,1,1,1,581,468,0,"MIX2",1,468,NA,NA,NA,NA,NA,NA
"151",1,8,7,2,1,2,0,0,2,1,1,681,3,1,"MIX2",1,469,NA,NA,NA,NA,NA,NA
"152",1,8,8,1,1,2,1,2,1,1,1,688,4,1,"MIX2",4,470,NA,NA,NA,NA,NA,NA
"153",1,8,9,2,1,8,0,0,1,1,0,877,6,1,"MIX2",1,3,2,4,471,472,473,474
"154",1,8,10,1,1,4,3,2,2,1,0,882,475,0,"MIX2",2,4,475,476,NA,NA,NA,NA
"155",1,8,11,1,1,2,1,2,1,1,1,826,3,1,"MIX2",3,477,NA,NA,NA,NA,NA,NA
"156",1,8,12,1,1,8,4,5,2,0,1,880,478,0,"MIX2",3,4,2,1,478,479,480,481
"157",1,8,13,1,1,2,2,1,2,1,0,633,482,0,"MIX2",3,482,NA,NA,NA,NA,NA,NA
"158",1,8,14,2,1,8,0,0,1,1,0,862,487,0,"MIX2",2,4,3,1,483,484,485,486
"159",1,8,15,1,1,8,2,7,2,1,0,852,491,0,"MIX2",1,4,2,3,488,489,490,491
"160",1,8,16,2,1,8,0,0,1,1,0,800,496,0,"MIX2",4,3,1,2,492,493,494,495
"161",1,8,17,2,1,8,0,0,1,1,0,831,501,0,"MIX2",4,2,3,1,497,498,499,500
"162",1,8,18,2,1,4,0,0,2,1,1,740,504,0,"MIX2",4,1,502,503,NA,NA,NA,NA
"163",1,8,19,1,1,8,5,4,1,1,1,1911,3,1,"MIX2",3,1,2,4,505,506,507,508
"164",1,8,20,1,1,4,3,2,1,1,1,987,509,0,"MIX2",3,2,509,510,NA,NA,NA,NA
"165",1,8,21,2,1,2,0,0,1,1,0,958,512,0,"MIX2",1,511,NA,NA,NA,NA,NA,NA
"166",1,8,22,2,1,4,0,0,1,1,0,1222,6,1,"MIX2",4,1,513,514,NA,NA,NA,NA
"167",1,8,23,1,1,8,2,7,1,1,1,1030,4,1,"MIX2",2,1,4,3,515,516,517,518
"168",1,8,24,2,1,4,0,0,1,1,0,676,521,0,"MIX2",2,3,519,520,NA,NA,NA,NA
"169",1,9,1,1,1,2,2,1,1,1,1,631,1,1,"MIX2",1,522,NA,NA,NA,NA,NA,NA
"170",1,9,2,2,1,8,0,0,2,1,1,902,527,0,"MIX2",4,3,1,2,523,524,525,526
"171",1,9,3,1,1,4,3,2,2,1,0,897,1,1,"MIX2",2,1,528,529,NA,NA,NA,NA
"172",1,9,4,2,1,2,0,0,1,1,0,849,8,1,"MIX2",4,530,NA,NA,NA,NA,NA,NA
"173",1,9,5,1,1,2,2,1,1,1,1,697,4,1,"MIX2",4,531,NA,NA,NA,NA,NA,NA
"174",1,9,6,2,1,8,0,0,1,1,0,788,536,0,"MIX2",4,2,1,3,532,533,534,535
"175",1,9,7,1,1,4,2,3,1,1,1,1356,538,0,"MIX2",2,3,537,538,NA,NA,NA,NA
"176",1,9,8,2,1,4,0,0,1,1,0,789,541,0,"MIX2",3,1,539,540,NA,NA,NA,NA
"177",1,9,9,1,1,2,1,2,1,1,1,614,542,0,"MIX2",3,542,NA,NA,NA,NA,NA,NA
"178",1,9,10,2,1,4,0,0,1,1,0,667,545,0,"MIX2",2,4,543,544,NA,NA,NA,NA
"179",1,9,11,1,1,2,1,2,2,0,1,1459,4,1,"MIX2",4,546,NA,NA,NA,NA,NA,NA
"180",1,9,12,2,1,8,0,0,1,1,0,1457,8,1,"MIX2",1,4,2,3,547,548,549,550
"181",1,9,13,1,1,8,3,6,2,1,0,1161,552,0,"MIX2",3,1,4,2,551,552,553,554
"182",1,9,14,1,1,8,3,6,1,1,1,962,558,0,"MIX2",3,2,1,4,555,556,557,558
"183",1,9,15,1,1,8,8,1,1,1,1,627,560,0,"MIX2",2,3,1,4,559,560,561,562
"184",1,9,16,1,1,2,2,1,1,1,1,646,1,1,"MIX2",1,563,NA,NA,NA,NA,NA,NA
"185",1,9,17,2,1,2,0,0,2,1,1,614,565,0,"MIX2",1,564,NA,NA,NA,NA,NA,NA
"186",1,9,18,2,1,2,0,0,2,1,1,744,567,0,"MIX2",2,566,NA,NA,NA,NA,NA,NA
"187",1,9,19,2,1,8,0,0,2,1,1,704,572,0,"MIX2",2,1,3,4,568,569,570,571
"188",1,9,20,2,1,4,0,0,1,1,0,803,575,0,"MIX2",3,4,573,574,NA,NA,NA,NA
"189",1,9,21,1,1,8,2,7,1,1,1,917,578,0,"MIX2",4,2,1,3,576,577,578,579
"190",1,9,22,2,1,8,0,0,1,1,0,838,584,0,"MIX2",2,1,4,3,580,581,582,583
"191",1,9,23,1,1,2,1,2,2,1,0,624,2,1,"MIX2",2,585,NA,NA,NA,NA,NA,NA
"192",1,9,24,1,1,4,2,3,1,1,1,775,587,0,"MIX2",3,4,586,587,NA,NA,NA,NA
"193",2,2,1,2,1,2,0,0,1,0,1,6987,65,0,"MIX2",3,64,NA,NA,NA,NA,NA,NA
"194",2,2,2,2,1,8,0,0,1,1,0,1345,70,0,"MIX2",2,3,4,1,66,67,68,69
"195",2,2,3,1,1,4,3,2,2,1,0,1115,72,0,"MIX2",3,2,71,72,NA,NA,NA,NA
"196",2,2,4,1,1,2,2,1,2,1,0,545,4,1,"MIX2",4,73,NA,NA,NA,NA,NA,NA
"197",2,2,5,2,1,4,0,0,2,1,1,1025,76,0,"MIX2",2,4,74,75,NA,NA,NA,NA
"198",2,2,6,1,1,8,3,6,1,0,0,648,80,0,"MIX2",2,4,1,3,77,78,79,80
"199",2,2,7,2,1,4,0,0,2,1,1,866,83,0,"MIX2",1,4,81,82,NA,NA,NA,NA
"200",2,2,8,2,1,8,0,0,1,1,0,718,88,0,"MIX2",2,1,4,3,84,85,86,87
"201",2,2,9,2,1,4,0,0,2,1,1,890,2,1,"MIX2",2,4,89,90,NA,NA,NA,NA
"202",2,2,10,1,1,2,2,1,1,1,1,585,3,1,"MIX2",3,91,NA,NA,NA,NA,NA,NA
"203",2,2,11,1,1,8,5,4,1,1,1,2235,3,1,"MIX2",4,3,1,2,92,93,94,95
"204",2,2,12,2,1,2,0,0,1,0,1,4827,97,0,"MIX2",4,96,NA,NA,NA,NA,NA,NA
"205",2,2,13,2,1,4,0,0,1,1,0,1241,100,0,"MIX2",1,3,98,99,NA,NA,NA,NA
"206",2,2,14,1,1,4,1,4,1,0,0,508,101,0,"MIX2",2,3,101,102,NA,NA,NA,NA
"207",2,2,15,2,1,4,0,0,1,1,0,438,105,0,"MIX2",2,1,103,104,NA,NA,NA,NA
"208",2,2,16,1,1,8,5,4,1,0,0,621,106,0,"MIX2",2,4,3,1,106,107,108,109
"209",2,2,17,1,1,2,2,1,1,1,1,7742,1,1,"MIX2",1,110,NA,NA,NA,NA,NA,NA
"210",2,2,18,2,1,8,0,0,2,1,1,591,115,0,"MIX2",2,3,1,4,111,112,113,114
"211",2,2,19,1,1,8,1,8,2,0,1,808,116,0,"MIX2",1,3,2,4,116,117,118,119
"212",2,2,20,2,1,2,0,0,1,1,0,650,121,0,"MIX2",3,120,NA,NA,NA,NA,NA,NA
"213",2,2,21,2,1,8,0,0,2,1,1,590,1,1,"MIX2",1,4,2,3,122,123,124,125
"214",2,2,22,1,1,4,2,3,1,0,0,598,126,0,"MIX2",1,4,126,127,NA,NA,NA,NA
"215",2,2,23,1,1,2,2,1,1,1,1,945,128,0,"MIX2",4,128,NA,NA,NA,NA,NA,NA
"216",2,2,24,2,1,8,0,0,2,1,1,1285,4,1,"MIX2",4,2,3,1,129,130,131,132
"217",2,3,1,1,1,8,8,1,2,1,0,992,135,0,"MIX2",1,3,4,2,133,134,135,136
"218",2,3,2,1,1,8,3,6,1,1,1,1001,137,0,"MIX2",1,4,2,3,137,138,139,140
"219",2,3,3,2,1,2,0,0,1,1,0,1053,5,1,"MIX2",3,141,NA,NA,NA,NA,NA,NA
"220",2,3,4,1,1,4,2,3,1,1,1,787,142,0,"MIX2",1,3,142,143,NA,NA,NA,NA
"221",2,3,5,1,1,4,2,3,1,0,0,578,144,0,"MIX2",4,3,144,145,NA,NA,NA,NA
"222",2,3,6,2,1,8,0,0,1,1,0,1228,150,0,"MIX2",1,4,2,3,146,147,148,149
"223",2,3,7,2,1,2,0,0,2,0,0,4006,7,1,"MIX2",1,151,NA,NA,NA,NA,NA,NA
"224",2,3,8,1,1,2,2,1,2,1,0,721,2,1,"MIX2",2,152,NA,NA,NA,NA,NA,NA
"225",2,3,9,1,1,2,1,2,1,1,1,704,153,0,"MIX2",2,153,NA,NA,NA,NA,NA,NA
"226",2,3,10,2,1,2,0,0,1,1,0,903,155,0,"MIX2",2,154,NA,NA,NA,NA,NA,NA
"227",2,3,11,2,1,8,0,0,1,1,0,851,5,1,"MIX2",4,3,2,1,156,157,158,159
"228",2,3,12,2,1,4,0,0,1,1,0,846,162,0,"MIX2",1,3,160,161,NA,NA,NA,NA
"229",2,3,13,2,1,8,0,0,2,1,1,997,1,1,"MIX2",4,2,3,1,163,164,165,166
"230",2,3,14,1,1,8,6,3,1,1,1,957,169,0,"MIX2",4,3,2,1,167,168,169,170
"231",2,3,15,2,1,8,0,0,1,1,0,671,175,0,"MIX2",4,3,1,2,171,172,173,174
"232",2,3,16,1,1,4,2,3,1,1,1,668,3,1,"MIX2",2,3,176,177,NA,NA,NA,NA
"233",2,3,17,1,1,8,1,8,1,1,1,753,181,0,"MIX2",2,3,1,4,178,179,180,181
"234",2,3,18,2,1,4,0,0,1,1,0,634,5,1,"MIX2",2,4,182,183,NA,NA,NA,NA
"235",2,3,19,1,1,4,1,4,2,1,0,656,3,1,"MIX2",3,1,184,185,NA,NA,NA,NA
"236",2,3,20,1,1,4,4,1,1,1,1,526,1,1,"MIX2",1,2,186,187,NA,NA,NA,NA
"237",2,3,21,2,1,8,0,0,1,0,1,962,1,1,"MIX2",4,3,1,2,188,189,190,191
"238",2,3,22,2,1,4,0,0,1,1,0,891,194,0,"MIX2",3,1,192,193,NA,NA,NA,NA
"239",2,3,23,1,1,4,1,4,2,1,0,894,3,1,"MIX2",1,3,195,196,NA,NA,NA,NA
"240",2,3,24,1,1,4,1,4,2,0,1,1099,197,0,"MIX2",1,4,197,198,NA,NA,NA,NA
"241",2,4,1,2,1,2,0,0,1,1,0,815,8,1,"MIX2",2,199,NA,NA,NA,NA,NA,NA
"242",2,4,2,2,1,8,0,0,1,0,1,958,2,1,"MIX2",1,3,2,4,200,201,202,203
"243",2,4,3,1,1,4,2,3,1,1,1,743,2,1,"MIX2",2,3,204,205,NA,NA,NA,NA
"244",2,4,4,1,1,2,1,2,2,1,0,853,2,1,"MIX2",2,206,NA,NA,NA,NA,NA,NA
"245",2,4,5,1,1,4,2,3,2,1,0,770,207,0,"MIX2",1,2,207,208,NA,NA,NA,NA
"246",2,4,6,2,1,2,0,0,1,1,0,814,7,1,"MIX2",3,209,NA,NA,NA,NA,NA,NA
"247",2,4,7,2,1,2,0,0,1,1,0,520,211,0,"MIX2",1,210,NA,NA,NA,NA,NA,NA
"248",2,4,8,2,1,8,0,0,2,0,0,1013,5,1,"MIX2",1,3,2,4,212,213,214,215
"249",2,4,9,1,1,4,4,1,1,1,1,636,3,1,"MIX2",3,2,216,217,NA,NA,NA,NA
"250",2,4,10,2,1,2,0,0,2,1,1,917,219,0,"MIX2",3,218,NA,NA,NA,NA,NA,NA
"251",2,4,11,2,1,4,0,0,1,1,0,864,222,0,"MIX2",4,2,220,221,NA,NA,NA,NA
"252",2,4,12,1,1,8,8,1,1,1,1,1598,223,0,"MIX2",4,2,3,1,223,224,225,226
"253",2,4,13,1,1,4,1,4,1,1,1,781,227,0,"MIX2",4,1,227,228,NA,NA,NA,NA
"254",2,4,14,1,1,4,4,1,2,1,0,397,4,1,"MIX2",1,4,229,230,NA,NA,NA,NA
"255",2,4,15,1,1,2,2,1,1,1,1,409,2,1,"MIX2",2,231,NA,NA,NA,NA,NA,NA
"256",2,4,16,2,1,4,0,0,2,1,1,510,234,0,"MIX2",1,4,232,233,NA,NA,NA,NA
"257",2,4,17,1,1,4,4,1,2,1,0,761,4,1,"MIX2",1,4,235,236,NA,NA,NA,NA
"258",2,4,18,2,1,4,0,0,2,1,1,491,3,1,"MIX2",3,1,237,238,NA,NA,NA,NA
"259",2,4,19,2,1,4,0,0,1,0,1,998,3,1,"MIX2",4,1,239,240,NA,NA,NA,NA
"260",2,4,20,2,1,2,0,0,1,1,0,609,242,0,"MIX2",3,241,NA,NA,NA,NA,NA,NA
"261",2,4,21,1,1,4,4,1,2,1,0,345,244,0,"MIX2",1,4,243,244,NA,NA,NA,NA
"262",2,4,22,2,1,8,0,0,1,0,1,507,1,1,"MIX2",4,1,2,3,245,246,247,248
"263",2,4,23,1,1,8,6,3,1,0,0,1279,249,0,"MIX2",2,1,4,3,249,250,251,252
"264",2,4,24,2,1,8,0,0,2,1,1,620,257,0,"MIX2",4,3,2,1,253,254,255,256
"265",2,5,1,1,1,4,4,1,2,1,0,801,258,0,"MIX2",2,4,258,259,NA,NA,NA,NA
"266",2,5,2,2,1,8,0,0,1,1,0,624,264,0,"MIX2",2,4,1,3,260,261,262,263
"267",2,5,3,2,1,8,0,0,1,1,0,551,269,0,"MIX2",3,4,1,2,265,266,267,268
"268",2,5,4,1,1,2,2,1,2,1,0,821,270,0,"MIX2",1,270,NA,NA,NA,NA,NA,NA
"269",2,5,5,1,1,2,1,2,2,1,0,1359,4,1,"MIX2",4,271,NA,NA,NA,NA,NA,NA
"270",2,5,6,2,1,2,0,0,1,1,0,500,6,1,"MIX2",4,272,NA,NA,NA,NA,NA,NA
"271",2,5,7,1,1,4,4,1,1,1,1,496,274,0,"MIX2",4,1,273,274,NA,NA,NA,NA
"272",2,5,8,1,1,2,1,2,2,1,0,648,275,0,"MIX2",3,275,NA,NA,NA,NA,NA,NA
"273",2,5,9,1,1,2,1,2,2,1,0,457,276,0,"MIX2",3,276,NA,NA,NA,NA,NA,NA
"274",2,5,10,1,1,8,8,1,2,1,0,680,277,0,"MIX2",2,1,3,4,277,278,279,280
"275",2,5,11,2,1,2,0,0,2,1,1,664,282,0,"MIX2",4,281,NA,NA,NA,NA,NA,NA
"276",2,5,12,1,1,8,6,3,2,1,0,582,1,1,"MIX2",1,4,3,2,283,284,285,286
"277",2,5,13,2,1,4,0,0,1,1,0,534,289,0,"MIX2",3,4,287,288,NA,NA,NA,NA
"278",2,5,14,1,1,8,8,1,2,1,0,737,290,0,"MIX2",1,2,4,3,290,291,292,293
"279",2,5,15,2,1,8,0,0,1,1,0,939,298,0,"MIX2",1,3,4,2,294,295,296,297
"280",2,5,16,1,1,4,2,3,2,1,0,989,4,1,"MIX2",1,4,299,300,NA,NA,NA,NA
"281",2,5,17,1,1,2,1,2,1,1,1,713,301,0,"MIX2",1,301,NA,NA,NA,NA,NA,NA
"282",2,5,18,2,1,2,0,0,2,1,1,576,303,0,"MIX2",2,302,NA,NA,NA,NA,NA,NA
"283",2,5,19,2,1,2,0,0,2,1,1,652,4,1,"MIX2",2,304,NA,NA,NA,NA,NA,NA
"284",2,5,20,2,1,2,0,0,1,1,0,613,306,0,"MIX2",4,305,NA,NA,NA,NA,NA,NA
"285",2,5,21,1,1,2,1,2,2,1,0,904,1,1,"MIX2",1,307,NA,NA,NA,NA,NA,NA
"286",2,5,22,2,1,8,0,0,1,0,1,1134,1,1,"MIX2",2,1,4,3,308,309,310,311
"287",2,5,23,1,1,8,4,5,1,1,1,801,3,1,"MIX2",1,4,2,3,312,313,314,315
"288",2,5,24,1,1,4,1,4,2,1,0,784,4,1,"MIX2",1,4,316,317,NA,NA,NA,NA
"289",2,6,1,1,1,4,2,3,2,1,0,666,1,1,"MIX2",2,1,318,319,NA,NA,NA,NA
"290",2,6,2,1,1,8,3,6,1,1,1,552,4,1,"MIX2",2,3,4,1,320,321,322,323
"291",2,6,3,1,1,8,5,4,1,1,1,537,2,1,"MIX2",1,3,4,2,324,325,326,327
"292",2,6,4,1,1,4,3,2,1,1,1,556,3,1,"MIX2",1,3,328,329,NA,NA,NA,NA
"293",2,6,5,1,1,8,1,8,1,0,0,803,332,0,"MIX2",3,2,1,4,330,331,332,333
"294",2,6,6,2,1,2,0,0,1,1,0,863,5,1,"MIX2",3,334,NA,NA,NA,NA,NA,NA
"295",2,6,7,2,1,2,0,0,2,1,1,855,3,1,"MIX2",2,335,NA,NA,NA,NA,NA,NA
"296",2,6,8,1,1,8,6,3,2,1,0,694,3,1,"MIX2",4,3,2,1,336,337,338,339
"297",2,6,9,2,1,8,0,0,2,1,1,778,344,0,"MIX2",1,4,3,2,340,341,342,343
"298",2,6,10,2,1,2,0,0,1,1,0,710,346,0,"MIX2",1,345,NA,NA,NA,NA,NA,NA
"299",2,6,11,2,1,4,0,0,1,1,0,865,8,1,"MIX2",2,3,347,348,NA,NA,NA,NA
"300",2,6,12,2,1,8,0,0,1,1,0,907,353,0,"MIX2",1,4,3,2,349,350,351,352
"301",2,6,13,1,1,2,2,1,1,1,1,746,354,0,"MIX2",2,354,NA,NA,NA,NA,NA,NA
"302",2,6,14,2,1,4,0,0,1,1,0,876,6,1,"MIX2",2,1,355,356,NA,NA,NA,NA
"303",2,6,15,1,1,2,1,2,2,1,0,917,4,1,"MIX2",4,357,NA,NA,NA,NA,NA,NA
"304",2,6,16,1,1,8,3,6,1,1,1,1153,358,0,"MIX2",3,1,2,4,358,359,360,361
"305",2,6,17,2,1,8,0,0,2,1,1,650,366,0,"MIX2",2,4,3,1,362,363,364,365
"306",2,6,18,1,1,2,2,1,1,1,1,467,2,1,"MIX2",2,367,NA,NA,NA,NA,NA,NA
"307",2,6,19,1,1,4,2,3,2,1,0,592,4,1,"MIX2",4,2,368,369,NA,NA,NA,NA
"308",2,6,20,2,1,8,0,0,2,1,1,1103,374,0,"MIX2",4,2,1,3,370,371,372,373
"309",2,6,21,1,1,4,3,2,1,1,1,722,3,1,"MIX2",4,3,375,376,NA,NA,NA,NA
"310",2,6,22,2,1,4,0,0,2,0,0,893,7,1,"MIX2",3,4,377,378,NA,NA,NA,NA
"311",2,6,23,2,1,4,0,0,2,1,1,568,381,0,"MIX2",3,1,379,380,NA,NA,NA,NA
"312",2,6,24,2,1,4,0,0,1,1,0,705,8,1,"MIX2",2,3,382,383,NA,NA,NA,NA
"313",2,7,1,2,1,4,0,0,1,1,0,656,7,1,"MIX2",3,1,384,385,NA,NA,NA,NA
"314",2,7,2,1,1,4,1,4,1,1,1,790,387,0,"MIX2",3,1,386,387,NA,NA,NA,NA
"315",2,7,3,1,1,2,2,1,1,1,1,490,388,0,"MIX2",1,388,NA,NA,NA,NA,NA,NA
"316",2,7,4,1,1,4,3,2,1,1,1,742,389,0,"MIX2",3,2,389,390,NA,NA,NA,NA
"317",2,7,5,2,1,8,0,0,1,1,0,1530,395,0,"MIX2",4,1,2,3,391,392,393,394
"318",2,7,6,1,1,2,2,1,2,1,0,1575,1,1,"MIX2",1,396,NA,NA,NA,NA,NA,NA
"319",2,7,7,2,1,2,0,0,1,1,0,796,398,0,"MIX2",4,397,NA,NA,NA,NA,NA,NA
"320",2,7,8,2,1,2,0,0,2,1,1,1108,400,0,"MIX2",2,399,NA,NA,NA,NA,NA,NA
"321",2,7,9,2,1,4,0,0,1,0,1,736,4,1,"MIX2",4,3,401,402,NA,NA,NA,NA
"322",2,7,10,1,1,2,2,1,2,1,0,909,403,0,"MIX2",1,403,NA,NA,NA,NA,NA,NA
"323",2,7,11,1,1,2,2,1,2,1,0,595,404,0,"MIX2",2,404,NA,NA,NA,NA,NA,NA
"324",2,7,12,2,1,2,0,0,1,1,0,783,8,1,"MIX2",1,405,NA,NA,NA,NA,NA,NA
"325",2,7,13,2,1,8,0,0,1,1,0,719,5,1,"MIX2",2,1,4,3,406,407,408,409
"326",2,7,14,1,1,2,2,1,2,1,0,589,2,1,"MIX2",2,410,NA,NA,NA,NA,NA,NA
"327",2,7,15,1,1,8,1,8,2,1,0,686,412,0,"MIX2",1,4,3,2,411,412,413,414
"328",2,7,16,2,1,2,0,0,1,1,0,558,416,0,"MIX2",2,415,NA,NA,NA,NA,NA,NA
"329",2,7,17,2,1,8,0,0,2,1,1,600,421,0,"MIX2",3,1,2,4,417,418,419,420
"330",2,7,18,1,1,4,1,4,1,1,1,783,2,1,"MIX2",2,3,422,423,NA,NA,NA,NA
"331",2,7,19,2,1,8,0,0,2,0,0,919,5,1,"MIX2",1,4,3,2,424,425,426,427
"332",2,7,20,1,1,4,1,4,2,1,0,778,429,0,"MIX2",3,4,428,429,NA,NA,NA,NA
"333",2,7,21,1,1,4,4,1,2,1,0,500,431,0,"MIX2",2,4,430,431,NA,NA,NA,NA
"334",2,7,22,1,1,4,4,1,2,1,0,423,433,0,"MIX2",2,3,432,433,NA,NA,NA,NA
"335",2,7,23,1,1,8,4,5,2,1,0,726,4,1,"MIX2",2,4,3,1,434,435,436,437
"336",2,7,24,1,1,4,3,2,1,1,1,585,438,0,"MIX2",1,2,438,439,NA,NA,NA,NA
"337",2,8,1,2,1,8,0,0,2,1,1,886,2,1,"MIX2",3,1,4,2,440,441,442,443
"338",2,8,2,1,1,2,2,1,1,1,1,469,4,1,"MIX2",4,444,NA,NA,NA,NA,NA,NA
"339",2,8,3,2,1,8,0,0,2,0,0,819,7,1,"MIX2",2,3,4,1,445,446,447,448
"340",2,8,4,1,1,2,2,1,1,1,1,414,4,1,"MIX2",4,449,NA,NA,NA,NA,NA,NA
"341",2,8,5,2,1,8,0,0,1,1,0,757,454,0,"MIX2",2,4,1,3,450,451,452,453
"342",2,8,6,2,1,2,0,0,2,1,1,722,2,1,"MIX2",1,455,NA,NA,NA,NA,NA,NA
"343",2,8,7,2,1,2,0,0,1,0,1,913,4,1,"MIX2",1,456,NA,NA,NA,NA,NA,NA
"344",2,8,8,1,1,4,2,3,1,1,1,725,458,0,"MIX2",2,1,457,458,NA,NA,NA,NA
"345",2,8,9,2,1,2,0,0,2,1,1,3779,460,0,"MIX2",3,459,NA,NA,NA,NA,NA,NA
"346",2,8,10,2,1,4,0,0,2,0,0,1565,7,1,"MIX2",3,2,461,462,NA,NA,NA,NA
"347",2,8,11,1,1,8,6,3,1,1,1,655,466,0,"MIX2",3,4,1,2,463,464,465,466
"348",2,8,12,1,1,8,8,1,2,1,0,1044,467,0,"MIX2",2,3,1,4,467,468,469,470
"349",2,8,13,2,1,2,0,0,2,1,1,893,2,1,"MIX2",3,471,NA,NA,NA,NA,NA,NA
"350",2,8,14,2,1,8,0,0,2,1,1,602,476,0,"MIX2",1,4,3,2,472,473,474,475
"351",2,8,15,1,1,2,2,1,2,1,0,773,2,1,"MIX2",2,477,NA,NA,NA,NA,NA,NA
"352",2,8,16,2,1,8,0,0,2,0,0,3278,6,1,"MIX2",2,1,4,3,478,479,480,481
"353",2,8,17,1,1,4,1,4,2,1,0,570,3,1,"MIX2",2,3,482,483,NA,NA,NA,NA
"354",2,8,18,2,1,8,0,0,2,1,1,731,488,0,"MIX2",3,2,1,4,484,485,486,487
"355",2,8,19,1,1,2,1,2,2,1,0,673,489,0,"MIX2",3,489,NA,NA,NA,NA,NA,NA
"356",2,8,20,2,1,8,0,0,1,1,0,751,494,0,"MIX2",3,4,1,2,490,491,492,493
"357",2,8,21,2,1,2,0,0,2,1,1,626,496,0,"MIX2",3,495,NA,NA,NA,NA,NA,NA
"358",2,8,22,2,1,8,0,0,2,1,1,947,1,1,"MIX2",3,1,4,2,497,498,499,500
"359",2,8,23,2,1,8,0,0,1,1,0,636,505,0,"MIX2",1,2,3,4,501,502,503,504
"360",2,8,24,1,1,8,8,1,2,1,0,971,507,0,"MIX2",3,1,2,4,506,507,508,509
"361",2,9,1,2,1,8,0,0,2,1,1,536,514,0,"MIX2",4,2,1,3,510,511,512,513
"362",2,9,2,2,1,8,0,0,1,1,0,2072,519,0,"MIX2",4,1,3,2,515,516,517,518
"363",2,9,3,1,1,8,1,8,2,1,0,693,4,1,"MIX2",3,4,1,2,520,521,522,523
"364",2,9,4,1,1,8,2,7,2,1,0,633,3,1,"MIX2",1,4,3,2,524,525,526,527
"365",2,9,5,1,1,2,2,1,1,1,1,635,1,1,"MIX2",1,528,NA,NA,NA,NA,NA,NA
"366",2,9,6,2,1,8,0,0,1,1,0,962,8,1,"MIX2",4,3,1,2,529,530,531,532
"367",2,9,7,2,1,4,0,0,1,1,0,633,5,1,"MIX2",3,2,533,534,NA,NA,NA,NA
"368",2,9,8,2,1,4,0,0,1,1,0,615,537,0,"MIX2",1,2,535,536,NA,NA,NA,NA
"369",2,9,9,1,1,2,1,2,2,1,0,689,538,0,"MIX2",1,538,NA,NA,NA,NA,NA,NA
"370",2,9,10,2,1,4,0,0,2,1,1,1139,4,1,"MIX2",4,1,539,540,NA,NA,NA,NA
"371",2,9,11,1,1,4,2,3,2,1,0,1066,541,0,"MIX2",1,4,541,542,NA,NA,NA,NA
"372",2,9,12,2,1,8,0,0,2,1,1,663,547,0,"MIX2",4,2,3,1,543,544,545,546
"373",2,9,13,2,1,2,0,0,2,1,1,693,549,0,"MIX2",2,548,NA,NA,NA,NA,NA,NA
"374",2,9,14,1,1,8,6,3,2,1,0,828,552,0,"MIX2",1,2,3,4,550,551,552,553
"375",2,9,15,1,1,8,2,7,1,1,1,796,4,1,"MIX2",1,4,2,3,554,555,556,557
"376",2,9,16,1,1,8,3,6,1,0,0,2236,1,1,"MIX2",3,2,1,4,558,559,560,561
"377",2,9,17,2,1,2,0,0,2,1,1,774,563,0,"MIX2",2,562,NA,NA,NA,NA,NA,NA
"378",2,9,18,2,1,2,0,0,2,1,1,682,565,0,"MIX2",1,564,NA,NA,NA,NA,NA,NA
"379",2,9,19,2,1,4,0,0,1,1,0,930,568,0,"MIX2",1,3,566,567,NA,NA,NA,NA
"380",2,9,20,2,1,8,0,0,2,1,1,1110,573,0,"MIX2",3,2,4,1,569,570,571,572
"381",2,9,21,1,1,8,3,6,1,1,1,1154,2,1,"MIX2",2,1,3,4,574,575,576,577
"382",2,9,22,2,1,2,0,0,2,0,0,975,6,1,"MIX2",1,578,NA,NA,NA,NA,NA,NA
"383",2,9,23,1,1,2,1,2,2,0,1,619,579,0,"MIX2",4,579,NA,NA,NA,NA,NA,NA
"384",2,9,24,2,1,4,0,0,2,1,1,787,3,1,"MIX2",3,1,580,581,NA,NA,NA,NA
"385",3,2,1,1,1,8,5,4,2,1,0,936,73,0,"MIX2",1,3,2,4,71,72,73,74
"386",3,2,2,2,1,8,0,0,2,1,1,1988,1,1,"MIX2",2,1,3,4,75,76,77,78
"387",3,2,3,1,1,4,2,3,1,1,1,1628,2,1,"MIX2",1,2,79,80,NA,NA,NA,NA
"388",3,2,4,1,1,4,1,4,1,1,1,1586,81,0,"MIX2",2,3,81,82,NA,NA,NA,NA
"389",3,2,5,2,1,8,0,0,2,1,1,819,87,0,"MIX2",4,3,2,1,83,84,85,86
"390",3,2,6,1,1,2,1,2,1,1,1,1510,1,1,"MIX2",1,88,NA,NA,NA,NA,NA,NA
"391",3,2,7,1,1,4,1,4,2,1,0,834,90,0,"MIX2",1,4,89,90,NA,NA,NA,NA
"392",3,2,8,2,1,8,0,0,1,1,0,832,6,1,"MIX2",1,3,4,2,91,92,93,94
"393",3,2,9,2,1,8,0,0,1,1,0,814,99,0,"MIX2",2,1,3,4,95,96,97,98
"394",3,2,10,2,1,4,0,0,2,1,1,725,2,1,"MIX2",3,4,100,101,NA,NA,NA,NA
"395",3,2,11,2,1,8,0,0,1,1,0,1480,106,0,"MIX2",3,2,1,4,102,103,104,105
"396",3,2,12,2,1,8,0,0,2,1,1,554,111,0,"MIX2",2,3,1,4,107,108,109,110
"397",3,2,13,2,1,8,0,0,1,1,0,949,7,1,"MIX2",2,1,4,3,112,113,114,115
"398",3,2,14,1,1,4,3,2,2,1,0,839,116,0,"MIX2",4,2,116,117,NA,NA,NA,NA
"399",3,2,15,2,1,2,0,0,2,1,1,1177,3,1,"MIX2",1,118,NA,NA,NA,NA,NA,NA
"400",3,2,16,1,1,8,2,7,2,1,0,2183,3,1,"MIX2",3,4,1,2,119,120,121,122
"401",3,2,17,1,1,2,1,2,1,1,1,1300,2,1,"MIX2",2,123,NA,NA,NA,NA,NA,NA
"402",3,2,18,2,1,2,0,0,1,1,0,852,8,1,"MIX2",2,124,NA,NA,NA,NA,NA,NA
"403",3,2,19,1,1,8,3,6,1,1,1,1635,4,1,"MIX2",2,3,1,4,125,126,127,128
"404",3,2,20,2,1,8,0,0,1,1,0,834,5,1,"MIX2",2,4,1,3,129,130,131,132
"405",3,2,21,2,1,2,0,0,1,1,0,1156,6,1,"MIX2",1,133,NA,NA,NA,NA,NA,NA
"406",3,2,22,2,1,8,0,0,1,1,0,853,138,0,"MIX2",4,3,1,2,134,135,136,137
"407",3,2,23,1,1,2,2,1,2,1,0,1190,2,1,"MIX2",2,139,NA,NA,NA,NA,NA,NA
"408",3,2,24,2,1,2,0,0,1,1,0,744,141,0,"MIX2",2,140,NA,NA,NA,NA,NA,NA
"409",3,3,1,1,1,2,1,2,1,1,1,993,142,0,"MIX2",1,142,NA,NA,NA,NA,NA,NA
"410",3,3,2,2,1,8,0,0,1,1,0,968,147,0,"MIX2",2,4,1,3,143,144,145,146
"411",3,3,3,1,1,2,2,1,2,1,0,709,3,1,"MIX2",3,148,NA,NA,NA,NA,NA,NA
"412",3,3,4,1,1,2,1,2,1,1,1,893,149,0,"MIX2",1,149,NA,NA,NA,NA,NA,NA
"413",3,3,5,2,1,2,0,0,2,1,1,682,151,0,"MIX2",2,150,NA,NA,NA,NA,NA,NA
"414",3,3,6,1,1,2,1,2,2,1,0,914,3,1,"MIX2",3,152,NA,NA,NA,NA,NA,NA
"415",3,3,7,2,1,2,0,0,1,1,0,831,8,1,"MIX2",3,153,NA,NA,NA,NA,NA,NA
"416",3,3,8,1,1,2,2,1,2,1,0,801,154,0,"MIX2",2,154,NA,NA,NA,NA,NA,NA
"417",3,3,9,2,1,2,0,0,1,1,0,753,156,0,"MIX2",1,155,NA,NA,NA,NA,NA,NA
"418",3,3,10,2,1,8,0,0,1,1,0,1140,7,1,"MIX2",4,1,2,3,157,158,159,160
"419",3,3,11,2,1,8,0,0,2,1,1,694,1,1,"MIX2",1,3,4,2,161,162,163,164
"420",3,3,12,1,1,2,1,2,2,1,0,1053,3,1,"MIX2",3,165,NA,NA,NA,NA,NA,NA
"421",3,3,13,1,1,2,2,1,1,1,1,565,1,1,"MIX2",1,166,NA,NA,NA,NA,NA,NA
"422",3,3,14,2,1,2,0,0,1,1,0,625,6,1,"MIX2",3,167,NA,NA,NA,NA,NA,NA
"423",3,3,15,2,1,8,0,0,1,1,0,998,172,0,"MIX2",2,4,1,3,168,169,170,171
"424",3,3,16,1,1,2,1,2,2,1,0,609,173,0,"MIX2",4,173,NA,NA,NA,NA,NA,NA
"425",3,3,17,1,1,8,1,8,2,1,0,1017,175,0,"MIX2",1,2,4,3,174,175,176,177
"426",3,3,18,2,1,8,0,0,2,1,1,1727,1,1,"MIX2",3,4,2,1,178,179,180,181
"427",3,3,19,2,1,2,0,0,2,1,1,877,1,1,"MIX2",3,182,NA,NA,NA,NA,NA,NA
"428",3,3,20,2,1,2,0,0,1,1,0,716,184,0,"MIX2",4,183,NA,NA,NA,NA,NA,NA
"429",3,3,21,1,1,4,1,4,2,1,0,1509,4,1,"MIX2",2,4,185,186,NA,NA,NA,NA
"430",3,3,22,2,1,4,0,0,2,1,1,912,3,1,"MIX2",4,1,187,188,NA,NA,NA,NA
"431",3,3,23,1,1,8,2,7,2,1,0,1052,189,0,"MIX2",2,1,3,4,189,190,191,192
"432",3,3,24,2,1,4,0,0,1,1,0,809,195,0,"MIX2",1,3,193,194,NA,NA,NA,NA
"433",3,4,1,2,1,2,0,0,2,1,1,568,197,0,"MIX2",3,196,NA,NA,NA,NA,NA,NA
"434",3,4,2,2,1,8,0,0,1,1,0,882,7,1,"MIX2",4,1,3,2,198,199,200,201
"435",3,4,3,1,1,4,3,2,1,1,1,1126,3,1,"MIX2",4,3,202,203,NA,NA,NA,NA
"436",3,4,4,2,1,4,0,0,1,1,0,1776,5,1,"MIX2",3,4,204,205,NA,NA,NA,NA
"437",3,4,5,1,1,4,4,1,1,1,1,1167,207,0,"MIX2",2,1,206,207,NA,NA,NA,NA
"438",3,4,6,1,1,8,8,1,2,1,0,593,3,1,"MIX2",4,2,3,1,208,209,210,211
"439",3,4,7,2,1,2,0,0,2,1,1,909,1,1,"MIX2",1,212,NA,NA,NA,NA,NA,NA
"440",3,4,8,2,1,8,0,0,1,1,0,776,8,1,"MIX2",2,4,1,3,213,214,215,216
"441",3,4,9,1,1,8,8,1,2,1,0,1066,3,1,"MIX2",1,4,3,2,217,218,219,220
"442",3,4,10,2,1,8,0,0,2,1,1,895,2,1,"MIX2",4,3,2,1,221,222,223,224
"443",3,4,11,2,1,8,0,0,2,0,0,1163,8,1,"MIX2",4,2,3,1,225,226,227,228
"444",3,4,12,2,1,8,0,0,1,1,0,1468,8,1,"MIX2",1,3,2,4,229,230,231,232
"445",3,4,13,2,1,2,0,0,2,1,1,741,3,1,"MIX2",2,233,NA,NA,NA,NA,NA,NA
"446",3,4,14,1,1,4,2,3,2,1,0,991,234,0,"MIX2",2,4,234,235,NA,NA,NA,NA
"447",3,4,15,2,1,2,0,0,1,1,0,681,237,0,"MIX2",2,236,NA,NA,NA,NA,NA,NA
"448",3,4,16,2,1,2,0,0,2,1,1,609,3,1,"MIX2",3,238,NA,NA,NA,NA,NA,NA
"449",3,4,17,2,1,8,0,0,2,1,1,808,243,0,"MIX2",2,4,1,3,239,240,241,242
"450",3,4,18,2,1,4,0,0,1,1,0,657,246,0,"MIX2",2,4,244,245,NA,NA,NA,NA
"451",3,4,19,2,1,2,0,0,1,1,0,873,248,0,"MIX2",3,247,NA,NA,NA,NA,NA,NA
"452",3,4,20,2,1,2,0,0,2,1,1,489,3,1,"MIX2",1,249,NA,NA,NA,NA,NA,NA
"453",3,4,21,1,1,4,3,2,2,1,0,2046,250,0,"MIX2",3,4,250,251,NA,NA,NA,NA
"454",3,4,22,2,1,8,0,0,1,1,0,877,7,1,"MIX2",3,4,2,1,252,253,254,255
"455",3,4,23,2,1,2,0,0,1,1,0,2443,257,0,"MIX2",4,256,NA,NA,NA,NA,NA,NA
"456",3,4,24,2,1,4,0,0,2,1,1,656,2,1,"MIX2",1,3,258,259,NA,NA,NA,NA
"457",3,5,1,1,1,2,1,2,2,1,0,1005,2,1,"MIX2",2,260,NA,NA,NA,NA,NA,NA
"458",3,5,2,2,1,2,0,0,2,1,1,950,262,0,"MIX2",4,261,NA,NA,NA,NA,NA,NA
"459",3,5,3,2,1,8,0,0,1,1,0,769,5,1,"MIX2",2,3,4,1,263,264,265,266
"460",3,5,4,2,1,4,0,0,2,1,1,537,269,0,"MIX2",2,1,267,268,NA,NA,NA,NA
"461",3,5,5,2,1,2,0,0,2,1,1,662,271,0,"MIX2",3,270,NA,NA,NA,NA,NA,NA
"462",3,5,6,1,1,4,2,3,1,1,1,1443,2,1,"MIX2",3,2,272,273,NA,NA,NA,NA
"463",3,5,7,2,1,4,0,0,2,1,1,1026,1,1,"MIX2",2,4,274,275,NA,NA,NA,NA
"464",3,5,8,1,1,8,6,3,2,1,0,1271,3,1,"MIX2",1,4,3,2,276,277,278,279
"465",3,5,9,1,1,8,2,7,2,1,0,1046,281,0,"MIX2",2,4,3,1,280,281,282,283
"466",3,5,10,1,1,2,2,1,2,1,0,879,3,1,"MIX2",3,284,NA,NA,NA,NA,NA,NA
"467",3,5,11,2,1,8,0,0,2,1,1,1148,3,1,"MIX2",3,2,1,4,285,286,287,288
"468",3,5,12,1,1,8,6,3,1,0,0,1358,1,1,"MIX2",3,4,1,2,289,290,291,292
"469",3,5,13,1,1,2,1,2,2,1,0,843,293,0,"MIX2",2,293,NA,NA,NA,NA,NA,NA
"470",3,5,14,2,1,8,0,0,1,1,0,1096,5,1,"MIX2",1,3,2,4,294,295,296,297
"471",3,5,15,2,1,8,0,0,2,1,1,891,2,1,"MIX2",3,4,2,1,298,299,300,301
"472",3,5,16,2,1,4,0,0,1,1,0,560,8,1,"MIX2",1,4,302,303,NA,NA,NA,NA
"473",3,5,17,1,1,8,3,6,1,1,1,1095,305,0,"MIX2",2,3,4,1,304,305,306,307
"474",3,5,18,2,1,4,0,0,2,1,1,754,1,1,"MIX2",1,3,308,309,NA,NA,NA,NA
"475",3,5,19,1,1,2,2,1,2,1,0,647,310,0,"MIX2",3,310,NA,NA,NA,NA,NA,NA
"476",3,5,20,1,1,4,3,2,2,1,0,660,311,0,"MIX2",1,3,311,312,NA,NA,NA,NA
"477",3,5,21,2,1,2,0,0,1,1,0,589,314,0,"MIX2",2,313,NA,NA,NA,NA,NA,NA
"478",3,5,22,1,1,4,3,2,1,1,1,813,315,0,"MIX2",3,2,315,316,NA,NA,NA,NA
"479",3,5,23,1,1,2,2,1,2,1,0,671,317,0,"MIX2",4,317,NA,NA,NA,NA,NA,NA
"480",3,5,24,2,1,4,0,0,1,1,0,733,320,0,"MIX2",4,2,318,319,NA,NA,NA,NA
"481",3,6,1,1,1,4,1,4,1,1,1,633,321,0,"MIX2",3,4,321,322,NA,NA,NA,NA
"482",3,6,2,1,1,2,2,1,1,1,1,595,4,1,"MIX2",4,323,NA,NA,NA,NA,NA,NA
"483",3,6,3,2,1,2,0,0,1,1,0,605,7,1,"MIX2",2,324,NA,NA,NA,NA,NA,NA
"484",3,6,4,1,1,4,3,2,2,1,0,1469,1,1,"MIX2",3,1,325,326,NA,NA,NA,NA
"485",3,6,5,2,1,4,0,0,2,1,1,665,329,0,"MIX2",1,2,327,328,NA,NA,NA,NA
"486",3,6,6,1,1,2,2,1,2,1,0,513,3,1,"MIX2",3,330,NA,NA,NA,NA,NA,NA
"487",3,6,7,2,1,2,0,0,1,1,0,541,332,0,"MIX2",3,331,NA,NA,NA,NA,NA,NA
"488",3,6,8,1,1,2,2,1,2,1,0,524,1,1,"MIX2",1,333,NA,NA,NA,NA,NA,NA
"489",3,6,9,2,1,8,0,0,2,1,1,695,338,0,"MIX2",2,4,1,3,334,335,336,337
"490",3,6,10,2,1,8,0,0,2,1,1,684,343,0,"MIX2",1,2,4,3,339,340,341,342
"491",3,6,11,2,1,2,0,0,1,1,0,596,6,1,"MIX2",3,344,NA,NA,NA,NA,NA,NA
"492",3,6,12,2,1,8,0,0,2,1,1,666,349,0,"MIX2",2,1,3,4,345,346,347,348
"493",3,6,13,1,1,2,2,1,1,1,1,722,350,0,"MIX2",4,350,NA,NA,NA,NA,NA,NA
"494",3,6,14,2,1,2,0,0,2,1,1,663,4,1,"MIX2",2,351,NA,NA,NA,NA,NA,NA
"495",3,6,15,2,1,8,0,0,2,1,1,717,356,0,"MIX2",1,2,4,3,352,353,354,355
"496",3,6,16,2,1,8,0,0,2,1,1,720,361,0,"MIX2",1,2,4,3,357,358,359,360
"497",3,6,17,2,1,4,0,0,1,1,0,667,7,1,"MIX2",3,4,362,363,NA,NA,NA,NA
"498",3,6,18,1,1,4,2,3,1,0,0,3080,365,0,"MIX2",1,3,364,365,NA,NA,NA,NA
"499",3,6,19,1,1,2,1,2,2,0,1,544,366,0,"MIX2",3,366,NA,NA,NA,NA,NA,NA
"500",3,6,20,2,1,8,0,0,1,1,0,1210,371,0,"MIX2",2,1,4,3,367,368,369,370
"501",3,6,21,1,1,4,3,2,2,1,0,849,372,0,"MIX2",1,2,372,373,NA,NA,NA,NA
"502",3,6,22,2,1,2,0,0,2,1,1,579,3,1,"MIX2",4,374,NA,NA,NA,NA,NA,NA
"503",3,6,23,1,1,4,2,3,2,0,1,915,1,1,"MIX2",2,1,375,376,NA,NA,NA,NA
"504",3,6,24,2,1,8,0,0,1,1,0,974,381,0,"MIX2",3,2,1,4,377,378,379,380
"505",3,7,1,1,1,2,1,2,2,1,0,542,382,0,"MIX2",3,382,NA,NA,NA,NA,NA,NA
"506",3,7,2,2,1,4,0,0,2,1,1,624,385,0,"MIX2",4,3,383,384,NA,NA,NA,NA
"507",3,7,3,1,1,4,3,2,2,1,0,831,4,1,"MIX2",4,3,386,387,NA,NA,NA,NA
"508",3,7,4,1,1,2,1,2,1,1,1,738,388,0,"MIX2",1,388,NA,NA,NA,NA,NA,NA
"509",3,7,5,1,1,8,6,3,1,1,1,1316,3,1,"MIX2",3,4,1,2,389,390,391,392
"510",3,7,6,2,1,4,0,0,2,1,1,695,3,1,"MIX2",3,4,393,394,NA,NA,NA,NA
"511",3,7,7,1,1,2,1,2,1,1,1,2110,3,1,"MIX2",3,395,NA,NA,NA,NA,NA,NA
"512",3,7,8,2,1,4,0,0,2,1,1,608,398,0,"MIX2",3,4,396,397,NA,NA,NA,NA
"513",3,7,9,1,1,8,2,7,2,0,1,1559,2,1,"MIX2",1,4,3,2,399,400,401,402
"514",3,7,10,1,1,4,3,2,2,1,0,880,404,0,"MIX2",2,4,403,404,NA,NA,NA,NA
"515",3,7,11,2,1,2,0,0,2,1,1,799,2,1,"MIX2",3,405,NA,NA,NA,NA,NA,NA
"516",3,7,12,2,1,2,0,0,2,1,1,642,3,1,"MIX2",1,406,NA,NA,NA,NA,NA,NA
"517",3,7,13,2,1,2,0,0,2,1,1,699,2,1,"MIX2",3,407,NA,NA,NA,NA,NA,NA
"518",3,7,14,2,1,2,0,0,2,1,1,656,409,0,"MIX2",1,408,NA,NA,NA,NA,NA,NA
"519",3,7,15,1,1,4,4,1,2,1,0,1197,410,0,"MIX2",3,4,410,411,NA,NA,NA,NA
"520",3,7,16,1,1,8,4,5,2,1,0,1198,3,1,"MIX2",2,4,1,3,412,413,414,415
"521",3,7,17,1,1,2,1,2,2,1,0,705,4,1,"MIX2",4,416,NA,NA,NA,NA,NA,NA
"522",3,7,18,1,1,8,1,8,2,1,0,998,420,0,"MIX2",3,4,2,1,417,418,419,420
"523",3,7,19,1,1,2,2,1,1,1,1,561,421,0,"MIX2",3,421,NA,NA,NA,NA,NA,NA
"524",3,7,20,2,1,4,0,0,2,1,1,739,4,1,"MIX2",2,4,422,423,NA,NA,NA,NA
"525",3,7,21,1,1,8,5,4,1,1,1,2277,4,1,"MIX2",4,3,2,1,424,425,426,427
"526",3,7,22,2,1,2,0,0,2,1,1,572,4,1,"MIX2",2,428,NA,NA,NA,NA,NA,NA
"527",3,7,23,2,1,4,0,0,1,1,0,3934,6,1,"MIX2",4,1,429,430,NA,NA,NA,NA
"528",3,7,24,1,1,4,3,2,2,1,0,1176,431,0,"MIX2",4,1,431,432,NA,NA,NA,NA
"529",3,8,1,1,1,4,3,2,1,0,0,1576,4,1,"MIX2",4,3,433,434,NA,NA,NA,NA
"530",3,8,2,1,1,4,1,4,2,0,1,1713,2,1,"MIX2",1,2,435,436,NA,NA,NA,NA
"531",3,8,3,2,1,4,0,0,1,1,0,707,439,0,"MIX2",3,1,437,438,NA,NA,NA,NA
"532",3,8,4,1,1,2,2,1,1,1,1,699,2,1,"MIX2",2,440,NA,NA,NA,NA,NA,NA
"533",3,8,5,1,1,2,2,1,1,1,1,578,441,0,"MIX2",1,441,NA,NA,NA,NA,NA,NA
"534",3,8,6,2,1,2,0,0,1,1,0,861,6,1,"MIX2",1,442,NA,NA,NA,NA,NA,NA
"535",3,8,7,1,1,4,2,3,1,1,1,1043,444,0,"MIX2",1,4,443,444,NA,NA,NA,NA
"536",3,8,8,2,1,2,0,0,1,1,0,589,6,1,"MIX2",1,445,NA,NA,NA,NA,NA,NA
"537",3,8,9,1,1,2,1,2,2,1,0,888,446,0,"MIX2",4,446,NA,NA,NA,NA,NA,NA
"538",3,8,10,2,1,8,0,0,2,1,1,915,451,0,"MIX2",3,4,2,1,447,448,449,450
"539",3,8,11,2,1,2,0,0,1,1,0,640,7,1,"MIX2",2,452,NA,NA,NA,NA,NA,NA
"540",3,8,12,1,1,2,1,2,2,1,0,970,453,0,"MIX2",4,453,NA,NA,NA,NA,NA,NA
"541",3,8,13,1,1,2,2,1,1,1,1,567,454,0,"MIX2",2,454,NA,NA,NA,NA,NA,NA
"542",3,8,14,1,1,2,2,1,1,1,1,995,455,0,"MIX2",1,455,NA,NA,NA,NA,NA,NA
"543",3,8,15,2,1,2,0,0,2,1,1,573,457,0,"MIX2",2,456,NA,NA,NA,NA,NA,NA
"544",3,8,16,1,1,4,3,2,1,1,1,974,459,0,"MIX2",4,1,458,459,NA,NA,NA,NA
"545",3,8,17,2,1,8,0,0,1,1,0,693,464,0,"MIX2",3,4,1,2,460,461,462,463
"546",3,8,18,1,1,8,8,1,1,1,1,1065,2,1,"MIX2",4,2,1,3,465,466,467,468
"547",3,8,19,1,1,2,2,1,1,1,1,674,469,0,"MIX2",1,469,NA,NA,NA,NA,NA,NA
"548",3,8,20,1,1,8,1,8,2,1,0,984,472,0,"MIX2",4,2,1,3,470,471,472,473
"549",3,8,21,2,1,2,0,0,1,1,0,595,6,1,"MIX2",3,474,NA,NA,NA,NA,NA,NA
"550",3,8,22,1,1,8,3,6,2,1,0,2076,4,1,"MIX2",4,1,2,3,475,476,477,478
"551",3,8,23,2,1,4,0,0,1,1,0,591,481,0,"MIX2",3,1,479,480,NA,NA,NA,NA
"552",3,8,24,1,1,8,8,1,1,1,1,887,4,1,"MIX2",3,4,1,2,482,483,484,485
"553",3,9,1,2,1,8,0,0,2,1,1,1752,490,0,"MIX2",3,2,4,1,486,487,488,489
"554",3,9,2,2,1,8,0,0,1,1,0,736,495,0,"MIX2",1,4,3,2,491,492,493,494
"555",3,9,3,1,1,4,1,4,2,0,1,1113,4,1,"MIX2",4,3,496,497,NA,NA,NA,NA
"556",3,9,4,1,1,8,4,5,2,1,0,1452,3,1,"MIX2",2,3,1,4,498,499,500,501
"557",3,9,5,1,1,8,7,2,1,1,1,1442,502,0,"MIX2",4,3,2,1,502,503,504,505
"558",3,9,6,2,1,2,0,0,1,1,0,779,8,1,"MIX2",4,506,NA,NA,NA,NA,NA,NA
"559",3,9,7,2,1,2,0,0,1,1,0,831,5,1,"MIX2",2,507,NA,NA,NA,NA,NA,NA
"560",3,9,8,1,1,2,2,1,1,1,1,865,4,1,"MIX2",4,508,NA,NA,NA,NA,NA,NA
"561",3,9,9,2,1,8,0,0,1,1,0,733,7,1,"MIX2",3,1,4,2,509,510,511,512
"562",3,9,10,1,1,4,1,4,1,1,1,1064,513,0,"MIX2",1,4,513,514,NA,NA,NA,NA
"563",3,9,11,1,1,4,3,2,2,1,0,900,515,0,"MIX2",2,1,515,516,NA,NA,NA,NA
"564",3,9,12,2,1,2,0,0,1,1,0,3764,518,0,"MIX2",1,517,NA,NA,NA,NA,NA,NA
"565",3,9,13,1,1,2,2,1,1,1,1,784,519,0,"MIX2",1,519,NA,NA,NA,NA,NA,NA
"566",3,9,14,2,1,4,0,0,2,1,1,728,4,1,"MIX2",4,3,520,521,NA,NA,NA,NA
"567",3,9,15,1,1,4,2,3,1,1,1,1251,522,0,"MIX2",2,4,522,523,NA,NA,NA,NA
"568",3,9,16,2,1,2,0,0,2,1,1,707,525,0,"MIX2",2,524,NA,NA,NA,NA,NA,NA
"569",3,9,17,2,1,4,0,0,1,1,0,815,8,1,"MIX2",1,2,526,527,NA,NA,NA,NA
"570",3,9,18,1,1,4,1,4,2,1,0,1559,528,0,"MIX2",3,1,528,529,NA,NA,NA,NA
"571",3,9,19,1,1,2,2,1,2,1,0,1372,3,1,"MIX2",3,530,NA,NA,NA,NA,NA,NA
"572",3,9,20,1,1,2,2,1,2,1,0,664,531,0,"MIX2",1,531,NA,NA,NA,NA,NA,NA
"573",3,9,21,2,1,4,0,0,1,1,0,564,6,1,"MIX2",3,4,532,533,NA,NA,NA,NA
"574",3,9,22,2,1,8,0,0,2,1,1,1146,1,1,"MIX2",4,2,1,3,534,535,536,537
"575",3,9,23,1,1,2,2,1,1,1,1,831,538,0,"MIX2",3,538,NA,NA,NA,NA,NA,NA
"576",3,9,24,2,1,4,0,0,2,1,1,803,541,0,"MIX2",4,2,539,540,NA,NA,NA,NA
