"","Subnum","Block","Trial","Old","testcdisgard","Setsize","Serpos","Lag","Response","Correctness","Side","RT","WhichProbe","Stimkind","FileCondi","prob1","prob2","prob3","prob4","prob5","prob6","prob7","prob8"
"1",1,2,1,2,1,4,0,0,2,0,0,4589,75,1,"MIX",7,6,73,74,NA,NA,NA,NA
"2",1,2,2,1,1,4,3,2,1,1,1,894,2,0,"MIX",7,1,76,77,NA,NA,NA,NA
"3",1,2,3,1,1,2,1,2,2,1,0,782,3,0,"MIX",3,78,NA,NA,NA,NA,NA,NA
"4",1,2,4,1,1,4,4,1,1,1,1,870,8,0,"MIX",3,7,79,80,NA,NA,NA,NA
"5",1,2,5,2,1,2,0,0,1,0,1,951,11,1,"MIX",4,81,NA,NA,NA,NA,NA,NA
"6",1,2,6,1,1,2,2,1,2,1,0,693,7,0,"MIX",7,82,NA,NA,NA,NA,NA,NA
"7",1,2,7,1,1,2,1,2,1,1,1,733,1,0,"MIX",1,83,NA,NA,NA,NA,NA,NA
"8",1,2,8,2,1,4,0,0,1,1,0,1801,86,1,"MIX",4,7,84,85,NA,NA,NA,NA
"9",1,2,9,2,1,2,0,0,2,1,1,3732,88,1,"MIX",7,87,NA,NA,NA,NA,NA,NA
"10",1,2,10,1,1,4,1,4,1,1,1,1607,5,0,"MIX",7,3,89,90,NA,NA,NA,NA
"11",1,2,11,1,1,4,1,4,1,1,1,784,2,0,"MIX",6,7,91,92,NA,NA,NA,NA
"12",1,2,12,2,1,8,0,0,2,0,0,1761,97,1,"MIX",8,6,7,2,93,94,95,96
"13",1,2,13,2,1,4,0,0,2,1,1,3140,14,1,"MIX",1,3,98,99,NA,NA,NA,NA
"14",1,2,14,1,1,2,2,1,2,1,0,746,8,0,"MIX",8,100,NA,NA,NA,NA,NA,NA
"15",1,2,15,1,1,2,1,2,1,1,1,641,7,0,"MIX",8,101,NA,NA,NA,NA,NA,NA
"16",1,2,16,1,1,4,1,4,1,1,1,576,6,0,"MIX",2,4,102,103,NA,NA,NA,NA
"17",1,2,17,1,1,4,2,3,2,1,0,721,4,0,"MIX",3,1,104,105,NA,NA,NA,NA
"18",1,2,18,2,1,2,0,0,2,1,1,712,9,1,"MIX",5,106,NA,NA,NA,NA,NA,NA
"19",1,2,19,2,1,8,0,0,2,1,1,4255,111,1,"MIX",1,8,6,2,107,108,109,110
"20",1,2,20,1,1,8,3,6,1,1,1,710,6,0,"MIX",8,1,7,6,112,113,114,115
"21",1,2,21,2,1,4,0,0,1,1,0,1315,9,1,"MIX",6,4,116,117,NA,NA,NA,NA
"22",1,2,22,1,1,4,2,3,1,1,1,663,6,0,"MIX",2,4,118,119,NA,NA,NA,NA
"23",1,2,23,1,1,4,1,4,1,1,1,661,1,0,"MIX",1,5,120,121,NA,NA,NA,NA
"24",1,2,24,2,1,4,0,0,1,1,0,820,15,1,"MIX",5,3,122,123,NA,NA,NA,NA
"25",1,3,1,1,1,8,3,6,2,1,0,963,1,0,"MIX",2,7,6,8,124,125,126,127
"26",1,3,2,1,1,2,1,2,2,1,0,705,1,0,"MIX",1,128,NA,NA,NA,NA,NA,NA
"27",1,3,3,1,1,8,7,2,1,1,1,679,3,0,"MIX",1,4,7,2,129,130,131,132
"28",1,3,4,1,1,2,1,2,2,1,0,720,4,0,"MIX",6,133,NA,NA,NA,NA,NA,NA
"29",1,3,5,1,1,4,3,2,2,1,0,780,4,0,"MIX",5,1,134,135,NA,NA,NA,NA
"30",1,3,6,2,1,2,0,0,2,1,1,2609,137,1,"MIX",3,136,NA,NA,NA,NA,NA,NA
"31",1,3,7,1,1,2,2,1,2,1,0,780,3,0,"MIX",1,138,NA,NA,NA,NA,NA,NA
"32",1,3,8,2,1,4,0,0,2,0,0,1958,141,1,"MIX",2,5,139,140,NA,NA,NA,NA
"33",1,3,9,1,1,8,1,8,1,1,1,1131,6,0,"MIX",4,5,3,1,142,143,144,145
"34",1,3,10,2,1,4,0,0,2,1,1,727,10,1,"MIX",3,7,146,147,NA,NA,NA,NA
"35",1,3,11,2,1,8,0,0,2,0,0,1084,13,1,"MIX",7,5,8,4,148,149,150,151
"36",1,3,12,2,1,2,0,0,2,1,1,2211,153,1,"MIX",8,152,NA,NA,NA,NA,NA,NA
"37",1,3,13,2,1,8,0,0,2,1,1,1967,158,1,"MIX",7,5,1,2,154,155,156,157
"38",1,3,14,1,1,4,2,3,1,0,0,3272,3,0,"MIX",5,2,159,160,NA,NA,NA,NA
"39",1,3,15,1,1,8,2,7,2,1,0,1096,3,0,"MIX",5,4,6,1,161,162,163,164
"40",1,3,16,1,1,2,2,1,2,1,0,625,2,0,"MIX",2,165,NA,NA,NA,NA,NA,NA
"41",1,3,17,1,1,8,2,7,1,1,1,698,3,0,"MIX",2,3,6,4,166,167,168,169
"42",1,3,18,2,1,2,0,0,2,1,1,690,9,1,"MIX",8,170,NA,NA,NA,NA,NA,NA
"43",1,3,19,1,1,8,6,3,2,1,0,633,3,0,"MIX",8,7,6,4,171,172,173,174
"44",1,3,20,2,1,2,0,0,2,0,0,3107,176,1,"MIX",3,175,NA,NA,NA,NA,NA,NA
"45",1,3,21,2,1,8,0,0,1,1,0,1977,181,1,"MIX",6,5,8,1,177,178,179,180
"46",1,3,22,1,1,8,7,2,1,1,1,748,3,0,"MIX",7,4,5,1,182,183,184,185
"47",1,3,23,1,1,4,2,3,1,1,1,1159,8,0,"MIX",3,7,186,187,NA,NA,NA,NA
"48",1,3,24,2,1,8,0,0,2,1,1,587,9,1,"MIX",7,1,3,8,188,189,190,191
"49",1,4,1,1,1,4,2,3,2,1,0,723,4,0,"MIX",1,2,192,193,NA,NA,NA,NA
"50",1,4,2,2,1,8,0,0,2,0,0,1079,13,1,"MIX",7,3,6,8,194,195,196,197
"51",1,4,3,1,1,8,2,7,1,1,1,607,1,0,"MIX",3,8,7,1,198,199,200,201
"52",1,4,4,2,1,2,0,0,1,1,0,2347,203,1,"MIX",8,202,NA,NA,NA,NA,NA,NA
"53",1,4,5,1,1,2,1,2,1,1,1,593,3,0,"MIX",3,204,NA,NA,NA,NA,NA,NA
"54",1,4,6,2,1,2,0,0,1,1,0,718,11,1,"MIX",5,205,NA,NA,NA,NA,NA,NA
"55",1,4,7,2,1,4,0,0,2,1,1,1114,14,1,"MIX",1,5,206,207,NA,NA,NA,NA
"56",1,4,8,2,1,2,0,0,2,1,1,625,15,1,"MIX",4,208,NA,NA,NA,NA,NA,NA
"57",1,4,9,2,1,2,0,0,2,1,1,1595,210,1,"MIX",1,209,NA,NA,NA,NA,NA,NA
"58",1,4,10,2,1,8,0,0,1,0,1,3375,215,1,"MIX",4,1,5,7,211,212,213,214
"59",1,4,11,1,1,2,2,1,2,1,0,748,2,0,"MIX",2,216,NA,NA,NA,NA,NA,NA
"60",1,4,12,2,1,8,0,0,1,0,1,960,221,1,"MIX",1,2,4,5,217,218,219,220
"61",1,4,13,1,1,8,4,5,2,1,0,1116,4,0,"MIX",4,3,5,1,222,223,224,225
"62",1,4,14,1,1,4,4,1,1,1,1,601,7,0,"MIX",5,2,226,227,NA,NA,NA,NA
"63",1,4,15,2,1,2,0,0,2,0,0,1268,229,1,"MIX",7,228,NA,NA,NA,NA,NA,NA
"64",1,4,16,1,1,8,3,6,1,1,1,627,5,0,"MIX",1,8,2,6,230,231,232,233
"65",1,4,17,2,1,2,0,0,1,0,1,1982,235,1,"MIX",5,234,NA,NA,NA,NA,NA,NA
"66",1,4,18,1,1,2,1,2,2,1,0,786,3,0,"MIX",3,236,NA,NA,NA,NA,NA,NA
"67",1,4,19,2,1,4,0,0,1,1,0,1083,239,1,"MIX",7,8,237,238,NA,NA,NA,NA
"68",1,4,20,2,1,4,0,0,1,1,0,713,9,1,"MIX",3,2,240,241,NA,NA,NA,NA
"69",1,4,21,2,1,2,0,0,2,1,1,576,15,1,"MIX",7,242,NA,NA,NA,NA,NA,NA
"70",1,4,22,1,1,8,3,6,2,1,0,716,8,0,"MIX",1,8,5,7,243,244,245,246
"71",1,4,23,1,1,2,2,1,1,1,1,580,4,0,"MIX",5,247,NA,NA,NA,NA,NA,NA
"72",1,4,24,2,1,8,0,0,1,1,0,704,16,1,"MIX",7,3,4,6,248,249,250,251
"73",1,5,1,2,1,4,0,0,1,0,1,1644,254,1,"MIX",1,5,252,253,NA,NA,NA,NA
"74",1,5,2,2,1,2,0,0,1,1,0,591,13,1,"MIX",5,255,NA,NA,NA,NA,NA,NA
"75",1,5,3,2,1,8,0,0,2,1,1,1371,260,1,"MIX",8,2,3,5,256,257,258,259
"76",1,5,4,2,1,8,0,0,1,1,0,1926,265,1,"MIX",6,7,1,5,261,262,263,264
"77",1,5,5,2,1,8,0,0,1,0,1,1276,270,1,"MIX",4,2,7,5,266,267,268,269
"78",1,5,6,2,1,2,0,0,2,0,0,3149,272,1,"MIX",1,271,NA,NA,NA,NA,NA,NA
"79",1,5,7,2,1,2,0,0,1,1,0,803,14,1,"MIX",3,273,NA,NA,NA,NA,NA,NA
"80",1,5,8,2,1,4,0,0,1,1,0,604,16,1,"MIX",2,7,274,275,NA,NA,NA,NA
"81",1,5,9,1,1,4,4,1,2,1,0,780,3,0,"MIX",4,1,276,277,NA,NA,NA,NA
"82",1,5,10,1,1,4,3,2,2,1,0,678,8,0,"MIX",8,3,278,279,NA,NA,NA,NA
"83",1,5,11,2,1,4,0,0,1,0,1,1253,282,1,"MIX",5,8,280,281,NA,NA,NA,NA
"84",1,5,12,1,1,2,1,2,2,1,0,631,7,0,"MIX",8,283,NA,NA,NA,NA,NA,NA
"85",1,5,13,2,1,4,0,0,2,1,1,807,9,1,"MIX",2,6,284,285,NA,NA,NA,NA
"86",1,5,14,2,1,4,0,0,2,1,1,671,14,1,"MIX",3,7,286,287,NA,NA,NA,NA
"87",1,5,15,1,1,2,2,1,1,1,1,632,2,0,"MIX",5,288,NA,NA,NA,NA,NA,NA
"88",1,5,16,1,1,8,8,1,2,1,0,690,2,0,"MIX",6,2,1,3,289,290,291,292
"89",1,5,17,2,1,4,0,0,1,1,0,976,12,1,"MIX",8,6,293,294,NA,NA,NA,NA
"90",1,5,18,1,1,4,1,4,2,1,0,593,7,0,"MIX",6,7,295,296,NA,NA,NA,NA
"91",1,5,19,2,1,8,0,0,2,1,1,507,15,1,"MIX",6,1,4,5,297,298,299,300
"92",1,5,20,2,1,8,0,0,1,0,1,1658,305,1,"MIX",6,2,1,7,301,302,303,304
"93",1,5,21,2,1,8,0,0,2,0,0,2043,310,1,"MIX",7,1,6,3,306,307,308,309
"94",1,5,22,1,1,8,2,7,1,1,1,764,2,0,"MIX",2,8,1,7,311,312,313,314
"95",1,5,23,1,1,4,4,1,2,1,0,759,1,0,"MIX",1,2,315,316,NA,NA,NA,NA
"96",1,5,24,2,1,8,0,0,1,0,1,1596,321,1,"MIX",4,2,1,8,317,318,319,320
"97",1,6,1,1,1,8,2,7,2,1,0,652,4,0,"MIX",7,1,5,6,322,323,324,325
"98",1,6,2,1,1,4,3,2,2,1,0,665,7,0,"MIX",3,7,326,327,NA,NA,NA,NA
"99",1,6,3,1,1,2,1,2,1,1,1,595,2,0,"MIX",2,328,NA,NA,NA,NA,NA,NA
"100",1,6,4,2,1,4,0,0,2,1,1,629,15,1,"MIX",8,7,329,330,NA,NA,NA,NA
"101",1,6,5,2,1,4,0,0,1,0,1,2837,12,1,"MIX",6,8,331,332,NA,NA,NA,NA
"102",1,6,6,1,1,4,1,4,1,1,1,588,7,0,"MIX",6,7,333,334,NA,NA,NA,NA
"103",1,6,7,1,1,4,2,3,2,1,0,780,3,0,"MIX",3,6,335,336,NA,NA,NA,NA
"104",1,6,8,2,1,2,0,0,1,0,1,1232,338,1,"MIX",8,337,NA,NA,NA,NA,NA,NA
"105",1,6,9,2,1,8,0,0,2,0,0,1440,343,1,"MIX",6,1,8,7,339,340,341,342
"106",1,6,10,2,1,4,0,0,1,1,0,911,16,1,"MIX",1,5,344,345,NA,NA,NA,NA
"107",1,6,11,1,1,8,8,1,1,1,1,400,1,0,"MIX",1,3,7,6,346,347,348,349
"108",1,6,12,2,1,8,0,0,2,1,1,642,14,1,"MIX",8,5,4,3,350,351,352,353
"109",1,6,13,1,1,4,2,3,1,1,1,1362,2,0,"MIX",4,2,354,355,NA,NA,NA,NA
"110",1,6,14,1,1,2,2,1,2,1,0,560,2,0,"MIX",2,356,NA,NA,NA,NA,NA,NA
"111",1,6,15,1,1,8,7,2,2,1,0,541,6,0,"MIX",3,8,4,1,357,358,359,360
"112",1,6,16,1,1,8,2,7,2,1,0,873,4,0,"MIX",6,3,5,8,361,362,363,364
"113",1,6,17,2,1,8,0,0,1,1,0,777,14,1,"MIX",3,1,8,5,365,366,367,368
"114",1,6,18,1,1,4,4,1,1,1,1,562,8,0,"MIX",1,4,369,370,NA,NA,NA,NA
"115",1,6,19,1,1,2,2,1,1,1,1,624,5,0,"MIX",8,371,NA,NA,NA,NA,NA,NA
"116",1,6,20,2,1,2,0,0,1,1,0,715,11,1,"MIX",5,372,NA,NA,NA,NA,NA,NA
"117",1,6,21,2,1,8,0,0,1,1,0,816,13,1,"MIX",6,4,2,7,373,374,375,376
"118",1,6,22,1,1,4,4,1,2,1,0,1256,8,0,"MIX",4,6,377,378,NA,NA,NA,NA
"119",1,6,23,2,1,4,0,0,1,0,1,1086,381,1,"MIX",5,7,379,380,NA,NA,NA,NA
"120",1,6,24,1,1,2,2,1,2,1,0,743,5,0,"MIX",6,382,NA,NA,NA,NA,NA,NA
"121",1,7,1,2,1,8,0,0,2,1,1,638,16,1,"MIX",5,3,1,8,383,384,385,386
"122",1,7,2,1,1,2,1,2,1,1,1,600,8,0,"MIX",8,387,NA,NA,NA,NA,NA,NA
"123",1,7,3,1,1,4,1,4,1,1,1,793,8,0,"MIX",4,8,388,389,NA,NA,NA,NA
"124",1,7,4,1,1,8,7,2,1,1,1,973,4,0,"MIX",8,4,5,2,390,391,392,393
"125",1,7,5,2,1,8,0,0,1,1,0,761,10,1,"MIX",5,8,1,6,394,395,396,397
"126",1,7,6,1,1,4,4,1,2,1,0,739,5,0,"MIX",7,5,398,399,NA,NA,NA,NA
"127",1,7,7,2,1,8,0,0,1,1,0,600,10,1,"MIX",6,7,3,2,400,401,402,403
"128",1,7,8,2,1,4,0,0,2,0,0,2169,406,1,"MIX",1,2,404,405,NA,NA,NA,NA
"129",1,7,9,1,1,4,3,2,1,1,1,4459,7,0,"MIX",1,5,407,408,NA,NA,NA,NA
"130",1,7,10,2,1,2,0,0,1,1,0,541,16,1,"MIX",6,409,NA,NA,NA,NA,NA,NA
"131",1,7,11,2,1,2,0,0,2,1,1,684,9,1,"MIX",7,410,NA,NA,NA,NA,NA,NA
"132",1,7,12,2,1,4,0,0,2,1,1,600,10,1,"MIX",2,3,411,412,NA,NA,NA,NA
"133",1,7,13,2,1,8,0,0,2,0,0,1731,417,1,"MIX",8,3,4,5,413,414,415,416
"134",1,7,14,1,1,8,8,1,1,1,1,432,3,0,"MIX",8,4,2,3,418,419,420,421
"135",1,7,15,1,1,8,8,1,2,1,0,657,1,0,"MIX",6,5,1,2,422,423,424,425
"136",1,7,16,2,1,2,0,0,1,0,1,3963,427,1,"MIX",7,426,NA,NA,NA,NA,NA,NA
"137",1,7,17,2,1,2,0,0,1,1,0,3537,13,1,"MIX",3,428,NA,NA,NA,NA,NA,NA
"138",1,7,18,1,1,8,7,2,2,1,0,1653,8,0,"MIX",7,2,5,6,429,430,431,432
"139",1,7,19,1,1,4,2,3,2,1,0,573,2,0,"MIX",3,2,433,434,NA,NA,NA,NA
"140",1,7,20,1,1,2,2,1,1,1,1,650,4,0,"MIX",4,435,NA,NA,NA,NA,NA,NA
"141",1,7,21,1,1,4,2,3,2,1,0,680,3,0,"MIX",2,7,436,437,NA,NA,NA,NA
"142",1,7,22,2,1,8,0,0,2,0,0,1198,442,1,"MIX",8,7,1,6,438,439,440,441
"143",1,7,23,2,1,2,0,0,1,0,1,2114,444,1,"MIX",6,443,NA,NA,NA,NA,NA,NA
"144",1,7,24,1,1,8,5,4,1,0,0,2032,2,0,"MIX",4,7,3,8,445,446,447,448
"145",1,8,1,1,1,2,2,1,1,1,1,786,6,0,"MIX",8,449,NA,NA,NA,NA,NA,NA
"146",1,8,2,2,1,2,0,0,1,1,0,935,15,1,"MIX",3,450,NA,NA,NA,NA,NA,NA
"147",1,8,3,2,1,8,0,0,2,1,1,627,15,1,"MIX",1,3,8,7,451,452,453,454
"148",1,8,4,2,1,4,0,0,2,0,0,3650,457,1,"MIX",2,6,455,456,NA,NA,NA,NA
"149",1,8,5,1,1,2,1,2,1,0,0,547,6,0,"MIX",1,458,NA,NA,NA,NA,NA,NA
"150",1,8,6,2,1,4,0,0,1,1,0,4325,461,1,"MIX",3,8,459,460,NA,NA,NA,NA
"151",1,8,7,2,1,2,0,0,1,0,1,2828,463,1,"MIX",8,462,NA,NA,NA,NA,NA,NA
"152",1,8,8,1,1,8,5,4,1,1,1,1277,3,0,"MIX",4,7,1,6,464,465,466,467
"153",1,8,9,2,1,4,0,0,1,1,0,770,10,1,"MIX",3,8,468,469,NA,NA,NA,NA
"154",1,8,10,2,1,4,0,0,1,0,1,1484,472,1,"MIX",3,2,470,471,NA,NA,NA,NA
"155",1,8,11,2,1,8,0,0,2,1,1,595,15,1,"MIX",3,8,1,7,473,474,475,476
"156",1,8,12,1,1,2,1,2,2,1,0,928,4,0,"MIX",8,477,NA,NA,NA,NA,NA,NA
"157",1,8,13,2,1,8,0,0,1,1,0,1181,482,1,"MIX",5,7,4,6,478,479,480,481
"158",1,8,14,1,1,4,3,2,1,1,1,1239,5,0,"MIX",4,2,483,484,NA,NA,NA,NA
"159",1,8,15,1,1,4,4,1,1,1,1,558,3,0,"MIX",3,6,485,486,NA,NA,NA,NA
"160",1,8,16,2,1,2,0,0,1,0,1,1307,488,1,"MIX",1,487,NA,NA,NA,NA,NA,NA
"161",1,8,17,2,1,2,0,0,2,1,1,667,11,1,"MIX",4,489,NA,NA,NA,NA,NA,NA
"162",1,8,18,2,1,8,0,0,2,1,1,722,16,1,"MIX",5,2,3,4,490,491,492,493
"163",1,8,19,1,1,8,2,7,1,1,1,728,1,0,"MIX",5,2,1,3,494,495,496,497
"164",1,8,20,2,1,2,0,0,2,0,0,4974,499,1,"MIX",7,498,NA,NA,NA,NA,NA,NA
"165",1,8,21,2,1,8,0,0,2,1,1,1193,10,1,"MIX",1,3,7,2,500,501,502,503
"166",1,8,22,2,1,2,0,0,1,0,1,1934,505,1,"MIX",7,504,NA,NA,NA,NA,NA,NA
"167",1,8,23,2,1,4,0,0,2,1,1,601,9,1,"MIX",8,6,506,507,NA,NA,NA,NA
"168",1,8,24,1,1,2,1,2,1,1,1,821,2,0,"MIX",6,508,NA,NA,NA,NA,NA,NA
"169",1,9,1,1,1,2,1,2,1,1,1,691,4,0,"MIX",2,509,NA,NA,NA,NA,NA,NA
"170",1,9,2,2,1,8,0,0,2,0,0,1867,514,1,"MIX",5,3,1,4,510,511,512,513
"171",1,9,3,1,1,4,4,1,1,1,1,569,5,0,"MIX",3,4,515,516,NA,NA,NA,NA
"172",1,9,4,2,1,4,0,0,2,1,1,2187,519,1,"MIX",6,2,517,518,NA,NA,NA,NA
"173",1,9,5,2,1,4,0,0,1,1,0,621,10,1,"MIX",8,4,520,521,NA,NA,NA,NA
"174",1,9,6,1,1,2,1,2,1,1,1,647,6,0,"MIX",6,522,NA,NA,NA,NA,NA,NA
"175",1,9,7,1,1,4,1,4,1,1,1,870,1,0,"MIX",2,6,523,524,NA,NA,NA,NA
"176",1,9,8,1,1,8,5,4,2,1,0,1446,7,0,"MIX",4,5,7,3,525,526,527,528
"177",1,9,9,2,1,2,0,0,2,1,1,656,13,1,"MIX",8,529,NA,NA,NA,NA,NA,NA
"178",1,9,10,1,1,4,2,3,2,1,0,622,4,0,"MIX",2,6,530,531,NA,NA,NA,NA
"179",1,9,11,1,1,4,2,3,1,1,1,1214,4,0,"MIX",3,7,532,533,NA,NA,NA,NA
"180",1,9,12,2,1,8,0,0,1,0,1,3984,538,1,"MIX",3,4,8,1,534,535,536,537
"181",1,9,13,2,1,4,0,0,2,1,1,1145,541,1,"MIX",4,6,539,540,NA,NA,NA,NA
"182",1,9,14,2,1,4,0,0,1,1,0,1092,11,1,"MIX",4,5,542,543,NA,NA,NA,NA
"183",1,9,15,1,1,8,7,2,1,1,1,539,2,0,"MIX",6,7,2,5,544,545,546,547
"184",1,9,16,1,1,4,4,1,2,1,0,574,7,0,"MIX",5,7,548,549,NA,NA,NA,NA
"185",1,9,17,2,1,2,0,0,2,1,1,572,15,1,"MIX",6,550,NA,NA,NA,NA,NA,NA
"186",1,9,18,1,1,8,1,8,1,1,1,936,2,0,"MIX",1,2,5,7,551,552,553,554
"187",1,9,19,1,1,4,4,1,2,1,0,1340,3,0,"MIX",3,8,555,556,NA,NA,NA,NA
"188",1,9,20,1,1,8,6,3,1,1,1,730,8,0,"MIX",4,7,6,3,557,558,559,560
"189",1,9,21,2,1,2,0,0,2,0,0,4193,562,1,"MIX",1,561,NA,NA,NA,NA,NA,NA
"190",1,9,22,2,1,2,0,0,2,1,1,637,13,1,"MIX",1,563,NA,NA,NA,NA,NA,NA
"191",1,9,23,2,1,4,0,0,1,0,1,3771,566,1,"MIX",5,2,564,565,NA,NA,NA,NA
"192",1,9,24,1,1,8,5,4,1,1,1,1014,8,0,"MIX",7,4,1,6,567,568,569,570
"193",2,2,1,1,1,8,3,6,2,0,1,1139,79,0,"MIX",6,7,1,3,77,78,79,80
"194",2,2,2,2,1,4,0,0,2,1,1,1045,83,0,"MIX",7,6,81,82,NA,NA,NA,NA
"195",2,2,3,1,1,8,1,8,2,1,0,1299,85,0,"MIX",4,2,7,1,84,85,86,87
"196",2,2,4,2,1,4,0,0,1,0,1,2521,1,1,"MIX",8,1,88,89,NA,NA,NA,NA
"197",2,2,5,2,1,4,0,0,2,1,1,500,7,1,"MIX",3,1,90,91,NA,NA,NA,NA
"198",2,2,6,1,1,8,8,1,2,0,1,1103,2,1,"MIX",8,7,1,2,92,93,94,95
"199",2,2,7,2,1,8,0,0,1,1,0,1181,15,1,"MIX",4,8,7,2,96,97,98,99
"200",2,2,8,2,1,8,0,0,2,0,0,775,104,0,"MIX",5,1,8,2,100,101,102,103
"201",2,2,9,2,1,8,0,0,2,1,1,465,7,1,"MIX",8,4,2,3,105,106,107,108
"202",2,2,10,1,1,2,2,1,1,0,0,1379,8,1,"MIX",8,109,NA,NA,NA,NA,NA,NA
"203",2,2,11,2,1,4,0,0,1,0,1,1316,2,1,"MIX",6,2,110,111,NA,NA,NA,NA
"204",2,2,12,2,1,4,0,0,2,0,0,959,11,1,"MIX",3,5,112,113,NA,NA,NA,NA
"205",2,2,13,1,1,2,2,1,2,1,0,2740,114,0,"MIX",5,114,NA,NA,NA,NA,NA,NA
"206",2,2,14,1,1,4,3,2,2,0,1,1047,115,0,"MIX",2,4,115,116,NA,NA,NA,NA
"207",2,2,15,2,1,2,0,0,1,1,0,1152,118,0,"MIX",8,117,NA,NA,NA,NA,NA,NA
"208",2,2,16,1,1,2,1,2,2,1,0,1645,119,0,"MIX",7,119,NA,NA,NA,NA,NA,NA
"209",2,2,17,2,1,4,0,0,1,1,0,1019,122,0,"MIX",3,6,120,121,NA,NA,NA,NA
"210",2,2,18,2,1,2,0,0,1,1,0,693,15,1,"MIX",8,123,NA,NA,NA,NA,NA,NA
"211",2,2,19,2,1,2,0,0,1,1,0,790,125,0,"MIX",3,124,NA,NA,NA,NA,NA,NA
"212",2,2,20,2,1,8,0,0,1,0,1,609,8,1,"MIX",2,7,6,3,126,127,128,129
"213",2,2,21,2,1,4,0,0,1,1,0,770,12,1,"MIX",6,5,130,131,NA,NA,NA,NA
"214",2,2,22,1,1,8,8,1,2,0,1,2510,133,0,"MIX",1,3,8,2,132,133,134,135
"215",2,2,23,2,1,4,0,0,1,1,0,1147,138,0,"MIX",6,4,136,137,NA,NA,NA,NA
"216",2,2,24,2,1,2,0,0,2,0,0,2952,140,0,"MIX",4,139,NA,NA,NA,NA,NA,NA
"217",2,3,1,1,1,4,4,1,1,1,1,1368,1,1,"MIX",1,7,141,142,NA,NA,NA,NA
"218",2,3,2,2,1,4,0,0,2,0,0,722,145,0,"MIX",2,8,143,144,NA,NA,NA,NA
"219",2,3,3,2,1,4,0,0,2,0,0,1134,148,0,"MIX",6,5,146,147,NA,NA,NA,NA
"220",2,3,4,1,1,2,1,2,2,1,0,972,149,0,"MIX",1,149,NA,NA,NA,NA,NA,NA
"221",2,3,5,2,1,4,0,0,1,0,1,2091,152,0,"MIX",4,1,150,151,NA,NA,NA,NA
"222",2,3,6,2,1,8,0,0,2,0,0,1786,14,1,"MIX",1,6,3,5,153,154,155,156
"223",2,3,7,2,1,4,0,0,1,0,1,1523,2,1,"MIX",7,2,157,158,NA,NA,NA,NA
"224",2,3,8,1,1,8,3,6,2,0,1,2111,4,1,"MIX",4,6,7,3,159,160,161,162
"225",2,3,9,2,1,2,0,0,1,0,1,1116,1,1,"MIX",7,163,NA,NA,NA,NA,NA,NA
"226",2,3,10,2,1,4,0,0,2,1,1,744,166,0,"MIX",2,7,164,165,NA,NA,NA,NA
"227",2,3,11,2,1,8,0,0,2,1,1,772,171,0,"MIX",8,5,3,7,167,168,169,170
"228",2,3,12,1,1,4,3,2,2,0,1,605,3,1,"MIX",3,5,172,173,NA,NA,NA,NA
"229",2,3,13,1,1,4,4,1,1,0,0,1252,4,1,"MIX",4,6,174,175,NA,NA,NA,NA
"230",2,3,14,2,1,4,0,0,2,1,1,707,4,1,"MIX",7,3,176,177,NA,NA,NA,NA
"231",2,3,15,1,1,8,5,4,1,0,0,888,1,1,"MIX",1,5,3,7,178,179,180,181
"232",2,3,16,2,1,4,0,0,2,1,1,1069,184,0,"MIX",3,2,182,183,NA,NA,NA,NA
"233",2,3,17,2,1,8,0,0,2,1,1,1019,189,0,"MIX",7,6,5,8,185,186,187,188
"234",2,3,18,1,1,4,3,2,1,0,0,867,4,1,"MIX",4,8,190,191,NA,NA,NA,NA
"235",2,3,19,1,1,8,6,3,1,1,1,859,3,1,"MIX",5,2,3,4,192,193,194,195
"236",2,3,20,2,1,4,0,0,1,0,1,721,1,1,"MIX",8,3,196,197,NA,NA,NA,NA
"237",2,3,21,2,1,2,0,0,1,0,1,655,3,1,"MIX",1,198,NA,NA,NA,NA,NA,NA
"238",2,3,22,2,1,8,0,0,2,1,1,501,203,0,"MIX",8,1,2,6,199,200,201,202
"239",2,3,23,2,1,2,0,0,2,1,1,524,205,0,"MIX",3,204,NA,NA,NA,NA,NA,NA
"240",2,3,24,2,1,8,0,0,2,0,0,562,16,1,"MIX",2,1,4,5,206,207,208,209
"241",2,4,1,1,1,8,1,8,2,0,1,726,2,1,"MIX",2,3,8,7,210,211,212,213
"242",2,4,2,2,1,4,0,0,2,0,0,2152,12,1,"MIX",2,1,214,215,NA,NA,NA,NA
"243",2,4,3,2,1,8,0,0,1,1,0,395,220,0,"MIX",6,8,7,1,216,217,218,219
"244",2,4,4,1,1,8,6,3,1,0,0,1029,2,1,"MIX",2,4,7,6,221,222,223,224
"245",2,4,5,1,1,2,2,1,1,1,1,768,8,1,"MIX",8,225,NA,NA,NA,NA,NA,NA
"246",2,4,6,1,1,2,2,1,1,1,1,525,7,1,"MIX",7,226,NA,NA,NA,NA,NA,NA
"247",2,4,7,2,1,2,0,0,2,0,0,1123,15,1,"MIX",7,227,NA,NA,NA,NA,NA,NA
"248",2,4,8,2,1,8,0,0,1,1,0,568,232,0,"MIX",6,4,3,5,228,229,230,231
"249",2,4,9,1,1,4,1,4,2,0,1,329,234,0,"MIX",8,5,233,234,NA,NA,NA,NA
"250",2,4,10,1,1,8,2,7,1,1,1,294,5,1,"MIX",4,1,5,6,235,236,237,238
"251",2,4,11,2,1,8,0,0,2,1,1,716,243,0,"MIX",5,8,4,1,239,240,241,242
"252",2,4,12,2,1,8,0,0,2,0,0,838,248,0,"MIX",6,7,2,4,244,245,246,247
"253",2,4,13,1,1,2,1,2,2,1,0,672,249,0,"MIX",7,249,NA,NA,NA,NA,NA,NA
"254",2,4,14,1,1,2,2,1,1,0,0,865,4,1,"MIX",4,250,NA,NA,NA,NA,NA,NA
"255",2,4,15,1,1,2,1,2,2,1,0,650,251,0,"MIX",2,251,NA,NA,NA,NA,NA,NA
"256",2,4,16,2,1,2,0,0,1,0,1,538,253,0,"MIX",6,252,NA,NA,NA,NA,NA,NA
"257",2,4,17,1,1,2,2,1,2,1,0,798,4,1,"MIX",4,254,NA,NA,NA,NA,NA,NA
"258",2,4,18,2,1,8,0,0,2,0,0,782,14,1,"MIX",7,3,5,8,255,256,257,258
"259",2,4,19,1,1,4,4,1,1,0,0,319,260,0,"MIX",1,2,259,260,NA,NA,NA,NA
"260",2,4,20,2,1,4,0,0,1,1,0,539,263,0,"MIX",1,7,261,262,NA,NA,NA,NA
"261",2,4,21,2,1,8,0,0,1,0,1,759,268,0,"MIX",2,7,1,6,264,265,266,267
"262",2,4,22,1,1,2,1,2,2,0,1,748,269,0,"MIX",7,269,NA,NA,NA,NA,NA,NA
"263",2,4,23,1,1,8,4,5,1,0,0,879,271,0,"MIX",1,7,6,3,270,271,272,273
"264",2,4,24,1,1,2,1,2,2,1,0,1105,274,0,"MIX",6,274,NA,NA,NA,NA,NA,NA
"265",2,5,1,2,1,4,0,0,1,0,1,516,277,0,"MIX",1,4,275,276,NA,NA,NA,NA
"266",2,5,2,2,1,2,0,0,2,1,1,1065,279,0,"MIX",2,278,NA,NA,NA,NA,NA,NA
"267",2,5,3,1,1,2,2,1,1,0,0,810,5,1,"MIX",5,280,NA,NA,NA,NA,NA,NA
"268",2,5,4,1,1,2,2,1,2,1,0,413,281,0,"MIX",4,281,NA,NA,NA,NA,NA,NA
"269",2,5,5,2,1,4,0,0,2,1,1,661,2,1,"MIX",3,4,282,283,NA,NA,NA,NA
"270",2,5,6,2,1,2,0,0,2,1,1,755,285,0,"MIX",7,284,NA,NA,NA,NA,NA,NA
"271",2,5,7,2,1,4,0,0,2,0,0,853,288,0,"MIX",3,1,286,287,NA,NA,NA,NA
"272",2,5,8,2,1,8,0,0,2,1,1,717,7,1,"MIX",1,4,3,5,289,290,291,292
"273",2,5,9,1,1,2,1,2,1,1,1,1491,8,1,"MIX",8,293,NA,NA,NA,NA,NA,NA
"274",2,5,10,1,1,4,3,2,2,0,1,825,7,1,"MIX",7,3,294,295,NA,NA,NA,NA
"275",2,5,11,2,1,4,0,0,2,1,1,416,298,0,"MIX",7,1,296,297,NA,NA,NA,NA
"276",2,5,12,1,1,4,2,3,2,0,1,1686,299,0,"MIX",4,2,299,300,NA,NA,NA,NA
"277",2,5,13,1,1,2,1,2,1,1,1,357,301,0,"MIX",5,301,NA,NA,NA,NA,NA,NA
"278",2,5,14,1,1,4,2,3,1,1,1,295,302,0,"MIX",8,7,302,303,NA,NA,NA,NA
"279",2,5,15,1,1,8,6,3,1,1,1,506,306,0,"MIX",6,3,5,4,304,305,306,307
"280",2,5,16,2,1,8,0,0,2,1,1,602,1,1,"MIX",8,6,1,2,308,309,310,311
"281",2,5,17,1,1,2,2,1,2,1,0,453,312,0,"MIX",4,312,NA,NA,NA,NA,NA,NA
"282",2,5,18,1,1,2,2,1,2,1,0,343,4,1,"MIX",4,313,NA,NA,NA,NA,NA,NA
"283",2,5,19,2,1,8,0,0,1,1,0,577,318,0,"MIX",6,2,1,8,314,315,316,317
"284",2,5,20,2,1,8,0,0,2,1,1,641,323,0,"MIX",3,6,1,5,319,320,321,322
"285",2,5,21,1,1,2,1,2,2,1,0,787,1,1,"MIX",1,324,NA,NA,NA,NA,NA,NA
"286",2,5,22,1,1,2,2,1,2,0,1,415,2,1,"MIX",2,325,NA,NA,NA,NA,NA,NA
"287",2,5,23,2,1,4,0,0,2,1,1,597,3,1,"MIX",3,2,326,327,NA,NA,NA,NA
"288",2,5,24,1,1,4,3,2,1,0,0,558,328,0,"MIX",3,1,328,329,NA,NA,NA,NA
"289",2,6,1,1,1,2,2,1,1,1,1,437,330,0,"MIX",4,330,NA,NA,NA,NA,NA,NA
"290",2,6,2,1,1,8,4,5,2,1,0,870,331,0,"MIX",5,6,3,8,331,332,333,334
"291",2,6,3,1,1,2,1,2,2,0,1,773,7,1,"MIX",7,335,NA,NA,NA,NA,NA,NA
"292",2,6,4,2,1,2,0,0,1,1,0,538,9,1,"MIX",3,336,NA,NA,NA,NA,NA,NA
"293",2,6,5,1,1,2,1,2,1,1,1,361,7,1,"MIX",7,337,NA,NA,NA,NA,NA,NA
"294",2,6,6,2,1,4,0,0,2,1,1,507,340,0,"MIX",4,1,338,339,NA,NA,NA,NA
"295",2,6,7,2,1,2,0,0,2,1,1,531,5,1,"MIX",8,341,NA,NA,NA,NA,NA,NA
"296",2,6,8,1,1,4,3,2,2,1,0,630,342,0,"MIX",3,1,342,343,NA,NA,NA,NA
"297",2,6,9,1,1,2,1,2,1,1,1,841,7,1,"MIX",7,344,NA,NA,NA,NA,NA,NA
"298",2,6,10,2,1,2,0,0,2,1,1,650,346,0,"MIX",2,345,NA,NA,NA,NA,NA,NA
"299",2,6,11,2,1,2,0,0,2,1,1,554,348,0,"MIX",3,347,NA,NA,NA,NA,NA,NA
"300",2,6,12,2,1,4,0,0,1,1,0,460,351,0,"MIX",2,8,349,350,NA,NA,NA,NA
"301",2,6,13,2,1,2,0,0,1,0,1,686,4,1,"MIX",2,352,NA,NA,NA,NA,NA,NA
"302",2,6,14,2,1,8,0,0,1,1,0,1491,357,0,"MIX",3,2,6,7,353,354,355,356
"303",2,6,15,2,1,4,0,0,2,1,1,567,6,1,"MIX",4,8,358,359,NA,NA,NA,NA
"304",2,6,16,1,1,4,3,2,2,0,1,1217,6,1,"MIX",6,7,360,361,NA,NA,NA,NA
"305",2,6,17,1,1,8,2,7,2,1,0,546,363,0,"MIX",2,1,6,7,362,363,364,365
"306",2,6,18,1,1,8,4,5,2,1,0,637,368,0,"MIX",7,6,1,8,366,367,368,369
"307",2,6,19,2,1,8,0,0,2,1,1,901,2,1,"MIX",5,8,7,3,370,371,372,373
"308",2,6,20,1,1,8,3,6,1,1,1,723,375,0,"MIX",8,4,6,7,374,375,376,377
"309",2,6,21,2,1,2,0,0,2,1,1,570,3,1,"MIX",5,378,NA,NA,NA,NA,NA,NA
"310",2,6,22,2,1,2,0,0,1,0,1,999,3,1,"MIX",3,379,NA,NA,NA,NA,NA,NA
"311",2,6,23,2,1,4,0,0,1,1,0,576,14,1,"MIX",4,2,380,381,NA,NA,NA,NA
"312",2,6,24,1,1,4,2,3,1,1,1,1776,383,0,"MIX",1,7,382,383,NA,NA,NA,NA
"313",2,7,1,1,1,8,4,5,1,0,0,645,386,0,"MIX",5,6,7,8,384,385,386,387
"314",2,7,2,1,1,8,6,3,2,1,0,741,5,1,"MIX",4,5,8,1,388,389,390,391
"315",2,7,3,2,1,8,0,0,1,1,0,656,396,0,"MIX",5,8,1,4,392,393,394,395
"316",2,7,4,2,1,2,0,0,2,1,1,913,7,1,"MIX",6,397,NA,NA,NA,NA,NA,NA
"317",2,7,5,2,1,2,0,0,1,1,0,455,399,0,"MIX",1,398,NA,NA,NA,NA,NA,NA
"318",2,7,6,1,1,4,2,3,1,1,1,1628,1,1,"MIX",4,1,400,401,NA,NA,NA,NA
"319",2,7,7,2,1,8,0,0,2,1,1,987,406,0,"MIX",5,7,8,4,402,403,404,405
"320",2,7,8,2,1,2,0,0,1,0,1,768,4,1,"MIX",8,407,NA,NA,NA,NA,NA,NA
"321",2,7,9,2,1,8,0,0,1,0,1,944,3,1,"MIX",6,7,2,1,408,409,410,411
"322",2,7,10,2,1,8,0,0,2,1,1,666,416,0,"MIX",4,1,7,8,412,413,414,415
"323",2,7,11,2,1,4,0,0,1,1,0,855,419,0,"MIX",4,1,417,418,NA,NA,NA,NA
"324",2,7,12,2,1,8,0,0,1,0,1,727,8,1,"MIX",2,4,6,7,420,421,422,423
"325",2,7,13,2,1,2,0,0,1,1,0,622,14,1,"MIX",1,424,NA,NA,NA,NA,NA,NA
"326",2,7,14,2,1,4,0,0,2,1,1,1221,427,0,"MIX",2,3,425,426,NA,NA,NA,NA
"327",2,7,15,1,1,4,1,4,1,1,1,1141,428,0,"MIX",1,4,428,429,NA,NA,NA,NA
"328",2,7,16,2,1,8,0,0,1,1,0,1143,16,1,"MIX",2,6,8,7,430,431,432,433
"329",2,7,17,2,1,8,0,0,1,1,0,1027,438,0,"MIX",4,1,2,5,434,435,436,437
"330",2,7,18,2,1,4,0,0,1,1,0,955,441,0,"MIX",2,5,439,440,NA,NA,NA,NA
"331",2,7,19,2,1,2,0,0,2,1,1,969,6,1,"MIX",7,442,NA,NA,NA,NA,NA,NA
"332",2,7,20,1,1,8,5,4,2,0,1,1790,443,0,"MIX",6,7,8,2,443,444,445,446
"333",2,7,21,2,1,2,0,0,2,0,0,2089,448,0,"MIX",8,447,NA,NA,NA,NA,NA,NA
"334",2,7,22,1,1,2,1,2,1,1,1,986,4,1,"MIX",4,449,NA,NA,NA,NA,NA,NA
"335",2,7,23,2,1,8,0,0,1,1,0,1059,454,0,"MIX",5,1,6,3,450,451,452,453
"336",2,7,24,2,1,4,0,0,1,1,0,937,457,0,"MIX",5,6,455,456,NA,NA,NA,NA
"337",2,8,1,2,1,2,0,0,2,1,1,863,5,1,"MIX",2,458,NA,NA,NA,NA,NA,NA
"338",2,8,2,1,1,8,3,6,2,1,0,686,461,0,"MIX",5,4,3,2,459,460,461,462
"339",2,8,3,1,1,2,2,1,2,0,1,550,463,0,"MIX",6,463,NA,NA,NA,NA,NA,NA
"340",2,8,4,1,1,8,7,2,2,1,0,466,467,0,"MIX",5,7,4,8,464,465,466,467
"341",2,8,5,2,1,8,0,0,2,1,1,841,472,0,"MIX",5,8,1,2,468,469,470,471
"342",2,8,6,2,1,8,0,0,2,1,1,735,2,1,"MIX",2,8,7,1,473,474,475,476
"343",2,8,7,2,1,4,0,0,1,1,0,930,479,0,"MIX",8,2,477,478,NA,NA,NA,NA
"344",2,8,8,2,1,8,0,0,1,1,0,855,484,0,"MIX",2,3,6,1,480,481,482,483
"345",2,8,9,2,1,2,0,0,1,1,0,704,13,1,"MIX",6,485,NA,NA,NA,NA,NA,NA
"346",2,8,10,2,1,2,0,0,2,1,1,1111,487,0,"MIX",3,486,NA,NA,NA,NA,NA,NA
"347",2,8,11,2,1,4,0,0,1,1,0,1172,12,1,"MIX",1,2,488,489,NA,NA,NA,NA
"348",2,8,12,2,1,8,0,0,1,1,0,1071,494,0,"MIX",2,6,5,7,490,491,492,493
"349",2,8,13,2,1,2,0,0,2,1,1,752,4,1,"MIX",7,495,NA,NA,NA,NA,NA,NA
"350",2,8,14,2,1,4,0,0,1,1,0,1154,9,1,"MIX",2,1,496,497,NA,NA,NA,NA
"351",2,8,15,2,1,8,0,0,1,1,0,702,502,0,"MIX",3,1,7,8,498,499,500,501
"352",2,8,16,2,1,2,0,0,1,1,0,1269,12,1,"MIX",6,503,NA,NA,NA,NA,NA,NA
"353",2,8,17,2,1,8,0,0,1,1,0,1092,14,1,"MIX",6,2,7,5,504,505,506,507
"354",2,8,18,2,1,4,0,0,2,1,1,992,8,1,"MIX",1,2,508,509,NA,NA,NA,NA
"355",2,8,19,2,1,4,0,0,2,1,1,817,6,1,"MIX",2,5,510,511,NA,NA,NA,NA
"356",2,8,20,2,1,2,0,0,2,1,1,716,1,1,"MIX",8,512,NA,NA,NA,NA,NA,NA
"357",2,8,21,1,1,4,3,2,1,1,1,871,513,0,"MIX",6,7,513,514,NA,NA,NA,NA
"358",2,8,22,1,1,2,1,2,2,1,0,944,5,1,"MIX",5,515,NA,NA,NA,NA,NA,NA
"359",2,8,23,2,1,4,0,0,2,1,1,953,518,0,"MIX",2,8,516,517,NA,NA,NA,NA
"360",2,8,24,1,1,8,1,8,1,1,1,1061,1,1,"MIX",1,4,7,3,519,520,521,522
"361",2,9,1,1,1,4,3,2,2,1,0,910,523,0,"MIX",5,8,523,524,NA,NA,NA,NA
"362",2,9,2,2,1,4,0,0,1,1,0,706,527,0,"MIX",1,8,525,526,NA,NA,NA,NA
"363",2,9,3,1,1,8,5,4,2,1,0,646,3,1,"MIX",6,4,3,8,528,529,530,531
"364",2,9,4,2,1,8,0,0,2,1,1,1503,536,0,"MIX",5,1,6,2,532,533,534,535
"365",2,9,5,2,1,2,0,0,1,1,0,1135,12,1,"MIX",5,537,NA,NA,NA,NA,NA,NA
"366",2,9,6,2,1,8,0,0,2,0,0,1139,9,1,"MIX",1,8,6,4,538,539,540,541
"367",2,9,7,1,1,2,1,2,2,1,0,570,542,0,"MIX",2,542,NA,NA,NA,NA,NA,NA
"368",2,9,8,1,1,8,8,1,1,1,1,900,5,1,"MIX",5,3,2,6,543,544,545,546
"369",2,9,9,2,1,8,0,0,2,1,1,627,551,0,"MIX",1,8,3,2,547,548,549,550
"370",2,9,10,2,1,2,0,0,1,1,0,1053,15,1,"MIX",1,552,NA,NA,NA,NA,NA,NA
"371",2,9,11,2,1,4,0,0,1,1,0,908,16,1,"MIX",6,1,553,554,NA,NA,NA,NA
"372",2,9,12,1,1,4,2,3,1,1,1,994,6,1,"MIX",6,5,555,556,NA,NA,NA,NA
"373",2,9,13,1,1,2,2,1,2,1,0,910,557,0,"MIX",4,557,NA,NA,NA,NA,NA,NA
"374",2,9,14,1,1,4,3,2,1,1,1,891,558,0,"MIX",4,8,558,559,NA,NA,NA,NA
"375",2,9,15,1,1,8,1,8,2,1,0,905,562,0,"MIX",6,4,1,7,560,561,562,563
"376",2,9,16,2,1,4,0,0,1,0,1,686,7,1,"MIX",3,6,564,565,NA,NA,NA,NA
"377",2,9,17,2,1,2,0,0,2,1,1,878,567,0,"MIX",5,566,NA,NA,NA,NA,NA,NA
"378",2,9,18,1,1,4,1,4,2,1,0,812,4,1,"MIX",3,4,568,569,NA,NA,NA,NA
"379",2,9,19,1,1,8,2,7,2,1,0,1115,6,1,"MIX",8,6,3,1,570,571,572,573
"380",2,9,20,1,1,2,2,1,1,1,1,930,5,1,"MIX",5,574,NA,NA,NA,NA,NA,NA
"381",2,9,21,1,1,2,1,2,1,1,1,1745,575,0,"MIX",1,575,NA,NA,NA,NA,NA,NA
"382",2,9,22,2,1,2,0,0,1,1,0,1175,16,1,"MIX",2,576,NA,NA,NA,NA,NA,NA
"383",2,9,23,1,1,2,2,1,1,0,0,404,1,1,"MIX",1,577,NA,NA,NA,NA,NA,NA
"384",2,9,24,2,1,2,0,0,2,1,1,1071,579,0,"MIX",3,578,NA,NA,NA,NA,NA,NA
"385",3,2,1,2,1,4,0,0,1,1,0,701,11,1,"MIX",5,2,76,77,NA,NA,NA,NA
"386",3,2,2,1,1,2,1,2,2,1,0,836,78,0,"MIX",1,78,NA,NA,NA,NA,NA,NA
"387",3,2,3,2,1,4,0,0,2,1,1,522,81,0,"MIX",4,6,79,80,NA,NA,NA,NA
"388",3,2,4,2,1,8,0,0,1,1,0,519,86,0,"MIX",3,8,6,4,82,83,84,85
"389",3,2,5,2,1,4,0,0,1,1,0,458,11,1,"MIX",1,6,87,88,NA,NA,NA,NA
"390",3,2,6,1,1,8,1,8,1,1,1,649,90,0,"MIX",7,1,5,4,89,90,91,92
"391",3,2,7,1,1,8,5,4,1,1,1,593,93,0,"MIX",4,6,2,7,93,94,95,96
"392",3,2,8,1,1,4,2,3,1,1,1,513,8,1,"MIX",1,8,97,98,NA,NA,NA,NA
"393",3,2,9,1,1,4,2,3,2,1,0,852,7,1,"MIX",8,7,99,100,NA,NA,NA,NA
"394",3,2,10,2,1,2,0,0,1,1,0,470,14,1,"MIX",1,101,NA,NA,NA,NA,NA,NA
"395",3,2,11,1,1,2,2,1,1,1,1,407,7,1,"MIX",7,102,NA,NA,NA,NA,NA,NA
"396",3,2,12,1,1,4,4,1,2,1,0,526,103,0,"MIX",2,8,103,104,NA,NA,NA,NA
"397",3,2,13,2,1,8,0,0,1,1,0,843,11,1,"MIX",2,3,4,8,105,106,107,108
"398",3,2,14,2,1,2,0,0,2,0,0,1565,11,1,"MIX",5,109,NA,NA,NA,NA,NA,NA
"399",3,2,15,2,1,4,0,0,1,1,0,502,16,1,"MIX",4,5,110,111,NA,NA,NA,NA
"400",3,2,16,2,1,4,0,0,2,1,1,554,8,1,"MIX",6,7,112,113,NA,NA,NA,NA
"401",3,2,17,2,1,8,0,0,1,1,0,630,13,1,"MIX",2,6,5,3,114,115,116,117
"402",3,2,18,1,1,2,1,2,2,1,0,1089,118,0,"MIX",1,118,NA,NA,NA,NA,NA,NA
"403",3,2,19,1,1,2,2,1,2,1,0,409,119,0,"MIX",4,119,NA,NA,NA,NA,NA,NA
"404",3,2,20,1,1,2,2,1,2,1,0,876,2,1,"MIX",2,120,NA,NA,NA,NA,NA,NA
"405",3,2,21,1,1,8,4,5,2,1,0,892,8,1,"MIX",8,2,5,7,121,122,123,124
"406",3,2,22,1,1,2,1,2,1,1,1,604,6,1,"MIX",6,125,NA,NA,NA,NA,NA,NA
"407",3,2,23,2,1,2,0,0,2,1,1,758,127,0,"MIX",7,126,NA,NA,NA,NA,NA,NA
"408",3,2,24,2,1,4,0,0,2,0,0,752,130,0,"MIX",1,8,128,129,NA,NA,NA,NA
"409",3,3,1,2,1,2,0,0,1,1,0,606,132,0,"MIX",4,131,NA,NA,NA,NA,NA,NA
"410",3,3,2,2,1,2,0,0,2,1,1,553,134,0,"MIX",3,133,NA,NA,NA,NA,NA,NA
"411",3,3,3,2,1,4,0,0,2,1,1,554,137,0,"MIX",5,1,135,136,NA,NA,NA,NA
"412",3,3,4,1,1,2,1,2,1,1,1,839,6,1,"MIX",6,138,NA,NA,NA,NA,NA,NA
"413",3,3,5,2,1,2,0,0,1,1,0,617,140,0,"MIX",5,139,NA,NA,NA,NA,NA,NA
"414",3,3,6,2,1,4,0,0,2,1,1,984,2,1,"MIX",2,8,141,142,NA,NA,NA,NA
"415",3,3,7,2,1,2,0,0,1,1,0,436,144,0,"MIX",8,143,NA,NA,NA,NA,NA,NA
"416",3,3,8,2,1,2,0,0,2,1,1,598,146,0,"MIX",4,145,NA,NA,NA,NA,NA,NA
"417",3,3,9,1,1,4,4,1,1,0,0,838,1,1,"MIX",1,5,147,148,NA,NA,NA,NA
"418",3,3,10,1,1,8,1,8,1,1,1,598,149,0,"MIX",4,6,8,1,149,150,151,152
"419",3,3,11,1,1,2,1,2,2,1,0,977,4,1,"MIX",4,153,NA,NA,NA,NA,NA,NA
"420",3,3,12,2,1,4,0,0,1,1,0,3442,15,1,"MIX",8,6,154,155,NA,NA,NA,NA
"421",3,3,13,1,1,4,2,3,1,1,1,529,4,1,"MIX",5,4,156,157,NA,NA,NA,NA
"422",3,3,14,2,1,2,0,0,1,1,0,624,159,0,"MIX",7,158,NA,NA,NA,NA,NA,NA
"423",3,3,15,1,1,8,8,1,1,1,1,1322,161,0,"MIX",8,1,2,6,160,161,162,163
"424",3,3,16,1,1,2,1,2,2,1,0,3177,164,0,"MIX",3,164,NA,NA,NA,NA,NA,NA
"425",3,3,17,2,1,2,0,0,2,1,1,685,166,0,"MIX",1,165,NA,NA,NA,NA,NA,NA
"426",3,3,18,1,1,4,4,1,2,1,0,2330,4,1,"MIX",2,4,167,168,NA,NA,NA,NA
"427",3,3,19,1,1,4,4,1,2,1,0,2373,3,1,"MIX",3,5,169,170,NA,NA,NA,NA
"428",3,3,20,2,1,8,0,0,2,0,0,855,175,0,"MIX",5,3,4,2,171,172,173,174
"429",3,3,21,2,1,8,0,0,1,1,0,469,180,0,"MIX",6,5,1,8,176,177,178,179
"430",3,3,22,2,1,2,0,0,2,1,1,870,182,0,"MIX",8,181,NA,NA,NA,NA,NA,NA
"431",3,3,23,1,1,8,6,3,2,1,0,516,3,1,"MIX",1,3,7,4,183,184,185,186
"432",3,3,24,2,1,4,0,0,1,1,0,582,189,0,"MIX",4,7,187,188,NA,NA,NA,NA
"433",3,4,1,1,1,8,2,7,2,0,1,554,193,0,"MIX",7,5,4,6,190,191,192,193
"434",3,4,2,2,1,8,0,0,1,1,0,1655,14,1,"MIX",1,2,4,8,194,195,196,197
"435",3,4,3,1,1,4,4,1,2,0,1,6397,7,1,"MIX",8,7,198,199,NA,NA,NA,NA
"436",3,4,4,1,1,2,1,2,1,1,1,881,5,1,"MIX",5,200,NA,NA,NA,NA,NA,NA
"437",3,4,5,2,1,2,0,0,2,1,1,849,202,0,"MIX",2,201,NA,NA,NA,NA,NA,NA
"438",3,4,6,1,1,2,2,1,2,1,0,483,1,1,"MIX",1,203,NA,NA,NA,NA,NA,NA
"439",3,4,7,1,1,4,2,3,2,1,0,648,205,0,"MIX",8,7,204,205,NA,NA,NA,NA
"440",3,4,8,1,1,4,2,3,2,1,0,454,206,0,"MIX",2,1,206,207,NA,NA,NA,NA
"441",3,4,9,2,1,2,0,0,2,0,0,4647,14,1,"MIX",2,208,NA,NA,NA,NA,NA,NA
"442",3,4,10,1,1,4,4,1,2,1,0,374,5,1,"MIX",5,1,209,210,NA,NA,NA,NA
"443",3,4,11,1,1,2,1,2,1,1,1,730,7,1,"MIX",7,211,NA,NA,NA,NA,NA,NA
"444",3,4,12,1,1,8,4,5,2,1,0,4111,4,1,"MIX",4,6,3,7,212,213,214,215
"445",3,4,13,1,1,4,2,3,2,1,0,642,6,1,"MIX",1,6,216,217,NA,NA,NA,NA
"446",3,4,14,2,1,2,0,0,1,1,0,508,219,0,"MIX",8,218,NA,NA,NA,NA,NA,NA
"447",3,4,15,2,1,4,0,0,2,1,1,880,3,1,"MIX",2,5,220,221,NA,NA,NA,NA
"448",3,4,16,2,1,8,0,0,1,1,0,1166,12,1,"MIX",5,1,3,6,222,223,224,225
"449",3,4,17,2,1,2,0,0,2,1,1,3073,227,0,"MIX",7,226,NA,NA,NA,NA,NA,NA
"450",3,4,18,2,1,4,0,0,1,1,0,4495,10,1,"MIX",1,8,228,229,NA,NA,NA,NA
"451",3,4,19,1,1,8,7,2,2,1,0,477,1,1,"MIX",1,2,3,4,230,231,232,233
"452",3,4,20,2,1,8,0,0,1,1,0,507,9,1,"MIX",5,1,3,6,234,235,236,237
"453",3,4,21,2,1,8,0,0,1,1,0,568,242,0,"MIX",8,1,3,5,238,239,240,241
"454",3,4,22,1,1,4,4,1,2,1,0,474,244,0,"MIX",3,2,243,244,NA,NA,NA,NA
"455",3,4,23,1,1,2,1,2,1,1,1,523,8,1,"MIX",8,245,NA,NA,NA,NA,NA,NA
"456",3,4,24,1,1,8,2,7,1,1,1,4504,5,1,"MIX",3,4,5,7,246,247,248,249
"457",3,5,1,1,1,4,4,1,2,1,0,323,251,0,"MIX",7,8,250,251,NA,NA,NA,NA
"458",3,5,2,1,1,2,2,1,1,1,1,4682,7,1,"MIX",7,252,NA,NA,NA,NA,NA,NA
"459",3,5,3,2,1,8,0,0,2,1,1,1344,7,1,"MIX",2,4,3,6,253,254,255,256
"460",3,5,4,1,1,8,3,6,2,1,0,524,258,0,"MIX",2,8,1,6,257,258,259,260
"461",3,5,5,2,1,4,0,0,2,1,1,575,263,0,"MIX",8,2,261,262,NA,NA,NA,NA
"462",3,5,6,1,1,8,7,2,2,1,0,3257,3,1,"MIX",2,6,3,1,264,265,266,267
"463",3,5,7,2,1,2,0,0,1,0,1,683,2,1,"MIX",4,268,NA,NA,NA,NA,NA,NA
"464",3,5,8,1,1,4,2,3,2,1,0,745,270,0,"MIX",3,7,269,270,NA,NA,NA,NA
"465",3,5,9,2,1,4,0,0,1,1,0,2420,15,1,"MIX",4,6,271,272,NA,NA,NA,NA
"466",3,5,10,1,1,8,5,4,1,1,1,869,6,1,"MIX",4,1,5,6,273,274,275,276
"467",3,5,11,1,1,4,3,2,2,1,0,731,8,1,"MIX",4,8,277,278,NA,NA,NA,NA
"468",3,5,12,2,1,8,0,0,1,1,0,529,11,1,"MIX",8,1,7,6,279,280,281,282
"469",3,5,13,2,1,2,0,0,2,1,1,527,284,0,"MIX",3,283,NA,NA,NA,NA,NA,NA
"470",3,5,14,1,1,2,1,2,2,1,0,477,2,1,"MIX",2,285,NA,NA,NA,NA,NA,NA
"471",3,5,15,1,1,4,4,1,2,1,0,434,287,0,"MIX",4,1,286,287,NA,NA,NA,NA
"472",3,5,16,2,1,8,0,0,1,0,1,1299,4,1,"MIX",4,5,7,1,288,289,290,291
"473",3,5,17,1,1,2,1,2,2,1,0,930,3,1,"MIX",3,292,NA,NA,NA,NA,NA,NA
"474",3,5,18,2,1,2,0,0,1,1,0,496,14,1,"MIX",4,293,NA,NA,NA,NA,NA,NA
"475",3,5,19,2,1,2,0,0,1,1,0,608,15,1,"MIX",6,294,NA,NA,NA,NA,NA,NA
"476",3,5,20,2,1,2,0,0,1,1,0,9436,9,1,"MIX",8,295,NA,NA,NA,NA,NA,NA
"477",3,5,21,2,1,2,0,0,2,1,1,422,2,1,"MIX",6,296,NA,NA,NA,NA,NA,NA
"478",3,5,22,1,1,8,2,7,2,1,0,2342,297,0,"MIX",6,8,7,5,297,298,299,300
"479",3,5,23,1,1,4,2,3,2,1,0,576,302,0,"MIX",1,3,301,302,NA,NA,NA,NA
"480",3,5,24,2,1,8,0,0,1,1,0,3034,307,0,"MIX",6,7,1,2,303,304,305,306
"481",3,6,1,2,1,2,0,0,2,1,1,508,309,0,"MIX",1,308,NA,NA,NA,NA,NA,NA
"482",3,6,2,2,1,8,0,0,1,1,0,712,314,0,"MIX",2,5,8,3,310,311,312,313
"483",3,6,3,1,1,4,1,4,1,1,1,1029,315,0,"MIX",5,8,315,316,NA,NA,NA,NA
"484",3,6,4,2,1,2,0,0,1,1,0,511,318,0,"MIX",8,317,NA,NA,NA,NA,NA,NA
"485",3,6,5,2,1,4,0,0,2,1,1,418,321,0,"MIX",8,3,319,320,NA,NA,NA,NA
"486",3,6,6,2,1,4,0,0,1,1,0,3561,15,1,"MIX",8,4,322,323,NA,NA,NA,NA
"487",3,6,7,1,1,2,2,1,2,1,0,445,324,0,"MIX",4,324,NA,NA,NA,NA,NA,NA
"488",3,6,8,2,1,8,0,0,1,1,0,812,15,1,"MIX",5,6,2,3,325,326,327,328
"489",3,6,9,1,1,2,1,2,2,1,0,3248,5,1,"MIX",5,329,NA,NA,NA,NA,NA,NA
"490",3,6,10,2,1,2,0,0,1,1,0,418,14,1,"MIX",3,330,NA,NA,NA,NA,NA,NA
"491",3,6,11,2,1,2,0,0,2,1,1,596,5,1,"MIX",8,331,NA,NA,NA,NA,NA,NA
"492",3,6,12,2,1,4,0,0,2,1,1,516,8,1,"MIX",5,6,332,333,NA,NA,NA,NA
"493",3,6,13,1,1,4,3,2,2,1,0,2152,335,0,"MIX",7,5,334,335,NA,NA,NA,NA
"494",3,6,14,1,1,4,2,3,2,1,0,474,337,0,"MIX",5,3,336,337,NA,NA,NA,NA
"495",3,6,15,2,1,2,0,0,1,1,0,953,339,0,"MIX",4,338,NA,NA,NA,NA,NA,NA
"496",3,6,16,2,1,2,0,0,2,1,1,438,341,0,"MIX",5,340,NA,NA,NA,NA,NA,NA
"497",3,6,17,2,1,2,0,0,2,0,0,2199,14,1,"MIX",1,342,NA,NA,NA,NA,NA,NA
"498",3,6,18,1,1,4,2,3,2,1,0,1879,343,0,"MIX",2,8,343,344,NA,NA,NA,NA
"499",3,6,19,2,1,8,0,0,1,1,0,413,9,1,"MIX",8,1,3,7,345,346,347,348
"500",3,6,20,1,1,8,8,1,2,1,0,367,5,1,"MIX",7,1,2,5,349,350,351,352
"501",3,6,21,1,1,8,5,4,2,1,0,545,7,1,"MIX",6,2,1,7,353,354,355,356
"502",3,6,22,1,1,4,1,4,2,0,1,931,357,0,"MIX",6,2,357,358,NA,NA,NA,NA
"503",3,6,23,2,1,8,0,0,1,1,0,815,363,0,"MIX",7,2,5,6,359,360,361,362
"504",3,6,24,1,1,8,8,1,1,1,1,529,8,1,"MIX",3,8,1,7,364,365,366,367
"505",3,7,1,2,1,4,0,0,1,1,0,411,16,1,"MIX",5,6,368,369,NA,NA,NA,NA
"506",3,7,2,2,1,8,0,0,2,1,1,411,1,1,"MIX",1,5,2,6,370,371,372,373
"507",3,7,3,1,1,4,2,3,1,1,1,627,374,0,"MIX",6,5,374,375,NA,NA,NA,NA
"508",3,7,4,1,1,4,2,3,1,1,1,753,8,1,"MIX",8,4,376,377,NA,NA,NA,NA
"509",3,7,5,2,1,8,0,0,1,1,0,819,13,1,"MIX",1,8,4,5,378,379,380,381
"510",3,7,6,1,1,8,4,5,1,0,0,468,383,0,"MIX",5,7,1,8,382,383,384,385
"511",3,7,7,1,1,8,7,2,2,1,0,739,388,0,"MIX",5,4,6,2,386,387,388,389
"512",3,7,8,1,1,4,4,1,1,1,1,3998,391,0,"MIX",5,6,390,391,NA,NA,NA,NA
"513",3,7,9,1,1,2,1,2,1,1,1,657,6,1,"MIX",6,392,NA,NA,NA,NA,NA,NA
"514",3,7,10,2,1,8,0,0,1,1,0,937,397,0,"MIX",5,3,8,2,393,394,395,396
"515",3,7,11,2,1,4,0,0,1,1,0,636,16,1,"MIX",3,7,398,399,NA,NA,NA,NA
"516",3,7,12,2,1,4,0,0,1,0,1,4329,402,0,"MIX",3,4,400,401,NA,NA,NA,NA
"517",3,7,13,1,1,4,1,4,1,1,1,518,7,1,"MIX",4,7,403,404,NA,NA,NA,NA
"518",3,7,14,1,1,4,3,2,2,1,0,536,405,0,"MIX",5,2,405,406,NA,NA,NA,NA
"519",3,7,15,1,1,2,2,1,1,1,1,2470,407,0,"MIX",2,407,NA,NA,NA,NA,NA,NA
"520",3,7,16,2,1,2,0,0,2,1,1,487,1,1,"MIX",6,408,NA,NA,NA,NA,NA,NA
"521",3,7,17,1,1,2,1,2,1,1,1,631,2,1,"MIX",2,409,NA,NA,NA,NA,NA,NA
"522",3,7,18,1,1,4,2,3,2,1,0,742,7,1,"MIX",7,6,410,411,NA,NA,NA,NA
"523",3,7,19,1,1,4,2,3,1,0,0,593,413,0,"MIX",6,5,412,413,NA,NA,NA,NA
"524",3,7,20,2,1,8,0,0,2,1,1,524,1,1,"MIX",4,5,1,3,414,415,416,417
"525",3,7,21,1,1,4,1,4,1,1,1,511,6,1,"MIX",6,3,418,419,NA,NA,NA,NA
"526",3,7,22,1,1,4,1,4,2,0,1,867,2,1,"MIX",5,2,420,421,NA,NA,NA,NA
"527",3,7,23,2,1,8,0,0,2,1,1,770,2,1,"MIX",2,3,8,7,422,423,424,425
"528",3,7,24,2,1,4,0,0,1,0,1,2106,4,1,"MIX",4,7,426,427,NA,NA,NA,NA
"529",3,8,1,1,1,4,4,1,2,1,0,525,7,1,"MIX",3,7,428,429,NA,NA,NA,NA
"530",3,8,2,1,1,8,3,6,1,0,0,1258,432,0,"MIX",7,1,2,6,430,431,432,433
"531",3,8,3,1,1,2,1,2,1,1,1,556,434,0,"MIX",7,434,NA,NA,NA,NA,NA,NA
"532",3,8,4,2,1,8,0,0,1,0,1,1558,439,0,"MIX",2,7,3,4,435,436,437,438
"533",3,8,5,1,1,4,2,3,2,1,0,513,6,1,"MIX",4,6,440,441,NA,NA,NA,NA
"534",3,8,6,1,1,4,2,3,2,1,0,598,2,1,"MIX",2,1,442,443,NA,NA,NA,NA
"535",3,8,7,1,1,4,2,3,2,1,0,1254,7,1,"MIX",5,7,444,445,NA,NA,NA,NA
"536",3,8,8,2,1,2,0,0,2,1,1,968,6,1,"MIX",2,446,NA,NA,NA,NA,NA,NA
"537",3,8,9,2,1,2,0,0,2,1,1,628,8,1,"MIX",4,447,NA,NA,NA,NA,NA,NA
"538",3,8,10,1,1,8,1,8,2,1,0,6508,6,1,"MIX",3,2,4,6,448,449,450,451
"539",3,8,11,2,1,8,0,0,2,1,1,746,456,0,"MIX",3,2,6,4,452,453,454,455
"540",3,8,12,2,1,8,0,0,2,1,1,1181,461,0,"MIX",6,1,5,2,457,458,459,460
"541",3,8,13,2,1,8,0,0,1,1,0,480,14,1,"MIX",2,7,8,3,462,463,464,465
"542",3,8,14,1,1,8,6,3,1,1,1,718,3,1,"MIX",5,7,2,3,466,467,468,469
"543",3,8,15,2,1,2,0,0,1,1,0,436,471,0,"MIX",7,470,NA,NA,NA,NA,NA,NA
"544",3,8,16,1,1,4,4,1,1,1,1,4251,472,0,"MIX",7,2,472,473,NA,NA,NA,NA
"545",3,8,17,1,1,4,1,4,1,1,1,649,475,0,"MIX",1,7,474,475,NA,NA,NA,NA
"546",3,8,18,1,1,4,1,4,1,0,0,5399,477,0,"MIX",3,7,476,477,NA,NA,NA,NA
"547",3,8,19,2,1,8,0,0,2,0,0,2465,13,1,"MIX",3,5,8,7,478,479,480,481
"548",3,8,20,1,1,2,2,1,2,1,0,466,482,0,"MIX",3,482,NA,NA,NA,NA,NA,NA
"549",3,8,21,1,1,2,1,2,2,1,0,451,483,0,"MIX",5,483,NA,NA,NA,NA,NA,NA
"550",3,8,22,1,1,4,2,3,1,1,1,745,485,0,"MIX",8,3,484,485,NA,NA,NA,NA
"551",3,8,23,2,1,8,0,0,1,0,1,542,6,1,"MIX",8,2,4,6,486,487,488,489
"552",3,8,24,2,1,4,0,0,1,1,0,2097,15,1,"MIX",4,8,490,491,NA,NA,NA,NA
"553",3,9,1,2,1,2,0,0,2,1,1,493,493,0,"MIX",1,492,NA,NA,NA,NA,NA,NA
"554",3,9,2,2,1,8,0,0,1,1,0,587,498,0,"MIX",2,3,4,7,494,495,496,497
"555",3,9,3,1,1,2,2,1,2,0,1,487,1,1,"MIX",1,499,NA,NA,NA,NA,NA,NA
"556",3,9,4,1,1,4,3,2,2,1,0,588,1,1,"MIX",6,1,500,501,NA,NA,NA,NA
"557",3,9,5,1,1,2,1,2,2,1,0,600,8,1,"MIX",8,502,NA,NA,NA,NA,NA,NA
"558",3,9,6,2,1,4,0,0,2,1,1,1336,1,1,"MIX",8,6,503,504,NA,NA,NA,NA
"559",3,9,7,1,1,8,8,1,2,1,0,436,508,0,"MIX",4,6,5,1,505,506,507,508
"560",3,9,8,1,1,4,1,4,1,1,1,602,3,1,"MIX",6,3,509,510,NA,NA,NA,NA
"561",3,9,9,1,1,2,1,2,1,1,1,454,6,1,"MIX",6,511,NA,NA,NA,NA,NA,NA
"562",3,9,10,1,1,8,6,3,2,1,0,1380,7,1,"MIX",1,2,7,5,512,513,514,515
"563",3,9,11,2,1,4,0,0,1,1,0,645,518,0,"MIX",2,1,516,517,NA,NA,NA,NA
"564",3,9,12,1,1,8,5,4,2,0,1,2748,1,1,"MIX",2,5,1,8,519,520,521,522
"565",3,9,13,1,1,4,1,4,1,1,1,662,4,1,"MIX",2,4,523,524,NA,NA,NA,NA
"566",3,9,14,2,1,4,0,0,2,1,1,868,5,1,"MIX",8,7,525,526,NA,NA,NA,NA
"567",3,9,15,1,1,2,1,2,1,1,1,549,8,1,"MIX",8,527,NA,NA,NA,NA,NA,NA
"568",3,9,16,2,1,8,0,0,2,1,1,1650,1,1,"MIX",8,2,4,7,528,529,530,531
"569",3,9,17,1,1,8,7,2,1,1,1,721,534,0,"MIX",3,2,1,8,532,533,534,535
"570",3,9,18,2,1,2,0,0,1,1,0,551,15,1,"MIX",5,536,NA,NA,NA,NA,NA,NA
"571",3,9,19,1,1,2,1,2,2,1,0,628,537,0,"MIX",6,537,NA,NA,NA,NA,NA,NA
"572",3,9,20,2,1,4,0,0,1,1,0,804,540,0,"MIX",7,2,538,539,NA,NA,NA,NA
"573",3,9,21,2,1,4,0,0,1,1,0,540,543,0,"MIX",1,4,541,542,NA,NA,NA,NA
"574",3,9,22,1,1,8,6,3,2,1,0,696,544,0,"MIX",5,1,6,8,544,545,546,547
"575",3,9,23,2,1,4,0,0,2,1,1,1716,2,1,"MIX",3,7,548,549,NA,NA,NA,NA
"576",3,9,24,2,1,8,0,0,1,1,0,657,12,1,"MIX",3,8,6,2,550,551,552,553
"577",4,2,1,1,1,4,4,1,2,1,0,476,3,1,"MIX",3,7,83,84,NA,NA,NA,NA
"578",4,2,2,1,1,4,2,3,2,0,1,640,85,0,"MIX",1,2,85,86,NA,NA,NA,NA
"579",4,2,3,2,1,4,0,0,2,1,1,1120,7,1,"MIX",6,7,87,88,NA,NA,NA,NA
"580",4,2,4,2,1,4,0,0,2,1,1,1067,8,1,"MIX",5,7,89,90,NA,NA,NA,NA
"581",4,2,5,2,1,8,0,0,2,0,0,2036,11,1,"MIX",3,2,5,8,91,92,93,94
"582",4,2,6,2,1,4,0,0,2,1,1,1513,7,1,"MIX",7,1,95,96,NA,NA,NA,NA
"583",4,2,7,1,1,2,1,2,1,1,1,655,1,1,"MIX",1,97,NA,NA,NA,NA,NA,NA
"584",4,2,8,2,1,2,0,0,2,1,1,825,99,0,"MIX",2,98,NA,NA,NA,NA,NA,NA
"585",4,2,9,1,1,4,3,2,1,1,1,656,6,1,"MIX",5,6,100,101,NA,NA,NA,NA
"586",4,2,10,2,1,4,0,0,2,1,1,716,104,0,"MIX",7,5,102,103,NA,NA,NA,NA
"587",4,2,11,1,1,8,6,3,2,1,0,591,7,1,"MIX",5,7,3,2,105,106,107,108
"588",4,2,12,2,1,4,0,0,2,1,1,640,111,0,"MIX",7,8,109,110,NA,NA,NA,NA
"589",4,2,13,2,1,2,0,0,1,1,0,585,10,1,"MIX",1,112,NA,NA,NA,NA,NA,NA
"590",4,2,14,2,1,8,0,0,2,1,1,1300,3,1,"MIX",8,4,3,2,113,114,115,116
"591",4,2,15,2,1,2,0,0,1,1,0,849,118,0,"MIX",8,117,NA,NA,NA,NA,NA,NA
"592",4,2,16,1,1,2,2,1,2,1,0,545,7,1,"MIX",7,119,NA,NA,NA,NA,NA,NA
"593",4,2,17,1,1,8,7,2,2,1,0,734,6,1,"MIX",7,8,2,6,120,121,122,123
"594",4,2,18,1,1,4,2,3,1,1,1,632,8,1,"MIX",7,8,124,125,NA,NA,NA,NA
"595",4,2,19,2,1,8,0,0,2,1,1,607,130,0,"MIX",5,8,4,2,126,127,128,129
"596",4,2,20,1,1,8,3,6,2,1,0,516,3,1,"MIX",2,5,6,3,131,132,133,134
"597",4,2,21,1,1,4,3,2,2,1,0,423,136,0,"MIX",8,7,135,136,NA,NA,NA,NA
"598",4,2,22,1,1,2,2,1,2,1,0,442,8,1,"MIX",8,137,NA,NA,NA,NA,NA,NA
"599",4,2,23,1,1,8,5,4,1,1,1,807,139,0,"MIX",3,7,4,6,138,139,140,141
"600",4,2,24,1,1,4,2,3,1,1,1,495,142,0,"MIX",2,3,142,143,NA,NA,NA,NA
"601",4,3,1,1,1,2,1,2,1,1,1,401,7,1,"MIX",7,144,NA,NA,NA,NA,NA,NA
"602",4,3,2,2,1,2,0,0,1,1,0,658,146,0,"MIX",3,145,NA,NA,NA,NA,NA,NA
"603",4,3,3,1,1,2,2,1,2,1,0,490,147,0,"MIX",1,147,NA,NA,NA,NA,NA,NA
"604",4,3,4,2,1,4,0,0,2,1,1,589,150,0,"MIX",5,1,148,149,NA,NA,NA,NA
"605",4,3,5,2,1,8,0,0,1,1,0,904,15,1,"MIX",3,2,8,4,151,152,153,154
"606",4,3,6,2,1,4,0,0,2,1,1,636,1,1,"MIX",8,5,155,156,NA,NA,NA,NA
"607",4,3,7,1,1,8,3,6,2,1,0,1572,157,0,"MIX",4,6,8,3,157,158,159,160
"608",4,3,8,2,1,4,0,0,2,1,1,701,4,1,"MIX",5,6,161,162,NA,NA,NA,NA
"609",4,3,9,1,1,8,5,4,1,1,1,609,164,0,"MIX",7,4,1,6,163,164,165,166
"610",4,3,10,1,1,2,2,1,1,1,1,428,6,1,"MIX",6,167,NA,NA,NA,NA,NA,NA
"611",4,3,11,2,1,4,0,0,2,1,1,466,170,0,"MIX",2,3,168,169,NA,NA,NA,NA
"612",4,3,12,1,1,8,7,2,2,1,0,637,174,0,"MIX",4,6,2,3,171,172,173,174
"613",4,3,13,1,1,2,1,2,2,1,0,502,175,0,"MIX",5,175,NA,NA,NA,NA,NA,NA
"614",4,3,14,2,1,4,0,0,1,0,1,889,5,1,"MIX",4,1,176,177,NA,NA,NA,NA
"615",4,3,15,2,1,8,0,0,2,1,1,1384,2,1,"MIX",1,4,5,6,178,179,180,181
"616",4,3,16,1,1,2,2,1,2,1,0,436,182,0,"MIX",7,182,NA,NA,NA,NA,NA,NA
"617",4,3,17,2,1,4,0,0,2,1,1,617,4,1,"MIX",3,7,183,184,NA,NA,NA,NA
"618",4,3,18,1,1,4,2,3,2,1,0,1015,186,0,"MIX",3,4,185,186,NA,NA,NA,NA
"619",4,3,19,1,1,2,2,1,2,0,1,593,3,1,"MIX",3,187,NA,NA,NA,NA,NA,NA
"620",4,3,20,1,1,2,1,2,2,1,0,796,188,0,"MIX",6,188,NA,NA,NA,NA,NA,NA
"621",4,3,21,2,1,4,0,0,1,1,0,689,191,0,"MIX",2,3,189,190,NA,NA,NA,NA
"622",4,3,22,2,1,2,0,0,1,1,0,906,13,1,"MIX",5,192,NA,NA,NA,NA,NA,NA
"623",4,3,23,2,1,4,0,0,2,1,1,574,3,1,"MIX",3,8,193,194,NA,NA,NA,NA
"624",4,3,24,2,1,4,0,0,1,1,0,623,197,0,"MIX",7,6,195,196,NA,NA,NA,NA
"625",4,4,1,1,1,8,6,3,2,1,0,678,199,0,"MIX",2,3,5,6,198,199,200,201
"626",4,4,2,1,1,2,1,2,2,1,0,655,1,1,"MIX",1,202,NA,NA,NA,NA,NA,NA
"627",4,4,3,2,1,2,0,0,2,1,1,535,204,0,"MIX",2,203,NA,NA,NA,NA,NA,NA
"628",4,4,4,2,1,8,0,0,1,1,0,785,209,0,"MIX",3,2,6,8,205,206,207,208
"629",4,4,5,1,1,8,5,4,1,1,1,565,4,1,"MIX",6,8,1,4,210,211,212,213
"630",4,4,6,1,1,2,2,1,1,1,1,465,2,1,"MIX",2,214,NA,NA,NA,NA,NA,NA
"631",4,4,7,2,1,4,0,0,1,1,0,552,217,0,"MIX",1,7,215,216,NA,NA,NA,NA
"632",4,4,8,2,1,2,0,0,2,1,1,500,219,0,"MIX",7,218,NA,NA,NA,NA,NA,NA
"633",4,4,9,2,1,4,0,0,2,1,1,473,222,0,"MIX",2,3,220,221,NA,NA,NA,NA
"634",4,4,10,2,1,4,0,0,1,1,0,556,225,0,"MIX",4,3,223,224,NA,NA,NA,NA
"635",4,4,11,1,1,8,4,5,1,1,1,1089,228,0,"MIX",4,7,8,6,226,227,228,229
"636",4,4,12,2,1,2,0,0,2,1,1,538,6,1,"MIX",6,230,NA,NA,NA,NA,NA,NA
"637",4,4,13,2,1,2,0,0,1,1,0,630,13,1,"MIX",4,231,NA,NA,NA,NA,NA,NA
"638",4,4,14,2,1,8,0,0,2,1,1,1470,1,1,"MIX",5,7,6,4,232,233,234,235
"639",4,4,15,2,1,4,0,0,1,1,0,554,238,0,"MIX",3,4,236,237,NA,NA,NA,NA
"640",4,4,16,2,1,2,0,0,1,1,0,503,240,0,"MIX",2,239,NA,NA,NA,NA,NA,NA
"641",4,4,17,2,1,8,0,0,1,1,0,593,245,0,"MIX",2,3,6,4,241,242,243,244
"642",4,4,18,1,1,8,2,7,1,1,1,523,8,1,"MIX",1,7,2,8,246,247,248,249
"643",4,4,19,2,1,4,0,0,1,1,0,813,252,0,"MIX",3,7,250,251,NA,NA,NA,NA
"644",4,4,20,1,1,4,4,1,2,1,0,548,254,0,"MIX",4,8,253,254,NA,NA,NA,NA
"645",4,4,21,1,1,4,2,3,1,1,1,965,256,0,"MIX",6,4,255,256,NA,NA,NA,NA
"646",4,4,22,1,1,8,1,8,1,1,1,877,260,0,"MIX",4,1,2,8,257,258,259,260
"647",4,4,23,1,1,4,3,2,2,1,0,912,262,0,"MIX",4,5,261,262,NA,NA,NA,NA
"648",4,4,24,2,1,8,0,0,2,1,1,762,6,1,"MIX",6,1,5,3,263,264,265,266
"649",4,5,1,1,1,2,1,2,2,1,0,548,4,1,"MIX",4,267,NA,NA,NA,NA,NA,NA
"650",4,5,2,1,1,8,2,7,2,1,0,590,269,0,"MIX",7,4,1,8,268,269,270,271
"651",4,5,3,2,1,2,0,0,2,1,1,1002,4,1,"MIX",2,272,NA,NA,NA,NA,NA,NA
"652",4,5,4,2,1,8,0,0,1,1,0,623,277,0,"MIX",4,2,6,7,273,274,275,276
"653",4,5,5,1,1,4,4,1,1,1,1,445,5,1,"MIX",5,2,278,279,NA,NA,NA,NA
"654",4,5,6,1,1,2,2,1,2,1,0,414,280,0,"MIX",4,280,NA,NA,NA,NA,NA,NA
"655",4,5,7,1,1,4,4,1,2,1,0,502,6,1,"MIX",3,6,281,282,NA,NA,NA,NA
"656",4,5,8,1,1,8,8,1,1,1,1,466,5,1,"MIX",8,5,3,6,283,284,285,286
"657",4,5,9,1,1,2,2,1,2,1,0,371,287,0,"MIX",7,287,NA,NA,NA,NA,NA,NA
"658",4,5,10,2,1,8,0,0,1,1,0,851,13,1,"MIX",4,1,7,5,288,289,290,291
"659",4,5,11,1,1,4,2,3,2,1,0,1032,293,0,"MIX",2,6,292,293,NA,NA,NA,NA
"660",4,5,12,2,1,8,0,0,2,1,1,575,298,0,"MIX",8,6,1,5,294,295,296,297
"661",4,5,13,1,1,8,5,4,1,1,1,630,3,1,"MIX",2,8,6,3,299,300,301,302
"662",4,5,14,2,1,8,0,0,1,0,1,800,1,1,"MIX",5,6,8,4,303,304,305,306
"663",4,5,15,1,1,8,4,5,2,1,0,1314,307,0,"MIX",5,7,3,2,307,308,309,310
"664",4,5,16,1,1,2,2,1,2,1,0,656,311,0,"MIX",8,311,NA,NA,NA,NA,NA,NA
"665",4,5,17,2,1,4,0,0,2,1,1,572,314,0,"MIX",6,1,312,313,NA,NA,NA,NA
"666",4,5,18,2,1,4,0,0,1,0,1,844,7,1,"MIX",6,8,315,316,NA,NA,NA,NA
"667",4,5,19,2,1,2,0,0,2,1,1,622,318,0,"MIX",2,317,NA,NA,NA,NA,NA,NA
"668",4,5,20,1,1,8,7,2,2,0,1,823,7,1,"MIX",5,3,7,6,319,320,321,322
"669",4,5,21,1,1,8,4,5,2,1,0,743,5,1,"MIX",3,6,7,5,323,324,325,326
"670",4,5,22,2,1,2,0,0,1,1,0,571,328,0,"MIX",3,327,NA,NA,NA,NA,NA,NA
"671",4,5,23,1,1,2,2,1,2,1,0,472,329,0,"MIX",7,329,NA,NA,NA,NA,NA,NA
"672",4,5,24,2,1,2,0,0,2,1,1,602,6,1,"MIX",2,330,NA,NA,NA,NA,NA,NA
"673",4,6,1,1,1,2,1,2,2,1,0,468,1,1,"MIX",1,331,NA,NA,NA,NA,NA,NA
"674",4,6,2,1,1,2,1,2,1,1,1,724,1,1,"MIX",1,332,NA,NA,NA,NA,NA,NA
"675",4,6,3,1,1,8,7,2,1,1,1,585,333,0,"MIX",4,8,3,6,333,334,335,336
"676",4,6,4,1,1,4,3,2,1,1,1,714,3,1,"MIX",3,5,337,338,NA,NA,NA,NA
"677",4,6,5,1,1,2,2,1,1,1,1,737,339,0,"MIX",5,339,NA,NA,NA,NA,NA,NA
"678",4,6,6,1,1,8,6,3,2,1,0,545,2,1,"MIX",5,2,8,4,340,341,342,343
"679",4,6,7,1,1,4,3,2,2,1,0,691,345,0,"MIX",3,8,344,345,NA,NA,NA,NA
"680",4,6,8,1,1,4,2,3,1,1,1,895,6,1,"MIX",1,6,346,347,NA,NA,NA,NA
"681",4,6,9,1,1,2,2,1,1,1,1,478,348,0,"MIX",1,348,NA,NA,NA,NA,NA,NA
"682",4,6,10,1,1,4,3,2,2,1,0,674,349,0,"MIX",2,8,349,350,NA,NA,NA,NA
"683",4,6,11,1,1,4,4,1,2,1,0,544,5,1,"MIX",5,3,351,352,NA,NA,NA,NA
"684",4,6,12,1,1,4,2,3,1,1,1,529,354,0,"MIX",6,8,353,354,NA,NA,NA,NA
"685",4,6,13,2,1,2,0,0,2,1,1,560,8,1,"MIX",8,355,NA,NA,NA,NA,NA,NA
"686",4,6,14,1,1,2,1,2,1,1,1,668,1,1,"MIX",1,356,NA,NA,NA,NA,NA,NA
"687",4,6,15,1,1,2,2,1,2,1,0,500,2,1,"MIX",2,357,NA,NA,NA,NA,NA,NA
"688",4,6,16,2,1,8,0,0,2,1,1,753,362,0,"MIX",5,7,1,3,358,359,360,361
"689",4,6,17,1,1,8,5,4,2,1,0,533,8,1,"MIX",8,3,4,7,363,364,365,366
"690",4,6,18,2,1,8,0,0,1,1,0,642,371,0,"MIX",6,5,7,8,367,368,369,370
"691",4,6,19,1,1,2,1,2,2,1,0,524,372,0,"MIX",6,372,NA,NA,NA,NA,NA,NA
"692",4,6,20,1,1,4,3,2,1,1,1,529,6,1,"MIX",7,6,373,374,NA,NA,NA,NA
"693",4,6,21,1,1,2,2,1,1,1,1,383,375,0,"MIX",6,375,NA,NA,NA,NA,NA,NA
"694",4,6,22,2,1,4,0,0,1,1,0,646,12,1,"MIX",6,7,376,377,NA,NA,NA,NA
"695",4,6,23,1,1,2,2,1,1,1,1,382,1,1,"MIX",1,378,NA,NA,NA,NA,NA,NA
"696",4,6,24,2,1,4,0,0,1,1,0,551,381,0,"MIX",3,4,379,380,NA,NA,NA,NA
"697",4,7,1,2,1,8,0,0,2,1,1,830,6,1,"MIX",4,1,7,2,382,383,384,385
"698",4,7,2,2,1,8,0,0,2,1,1,1004,390,0,"MIX",3,5,6,7,386,387,388,389
"699",4,7,3,1,1,8,6,3,2,1,0,486,391,0,"MIX",1,7,4,3,391,392,393,394
"700",4,7,4,1,1,4,2,3,1,1,1,794,2,1,"MIX",2,5,395,396,NA,NA,NA,NA
"701",4,7,5,2,1,8,0,0,2,1,1,1082,8,1,"MIX",6,5,7,1,397,398,399,400
"702",4,7,6,1,1,8,2,7,1,0,0,734,404,0,"MIX",5,4,1,8,401,402,403,404
"703",4,7,7,1,1,4,3,2,2,1,0,710,8,1,"MIX",6,8,405,406,NA,NA,NA,NA
"704",4,7,8,1,1,2,2,1,2,1,0,413,407,0,"MIX",3,407,NA,NA,NA,NA,NA,NA
"705",4,7,9,1,1,8,2,7,2,1,0,542,7,1,"MIX",2,5,8,7,408,409,410,411
"706",4,7,10,1,1,8,7,2,2,1,0,714,5,1,"MIX",5,2,6,4,412,413,414,415
"707",4,7,11,1,1,8,7,2,1,1,1,475,418,0,"MIX",7,1,5,3,416,417,418,419
"708",4,7,12,1,1,2,1,2,2,1,0,443,420,0,"MIX",5,420,NA,NA,NA,NA,NA,NA
"709",4,7,13,1,1,8,2,7,2,1,0,761,8,1,"MIX",8,3,2,5,421,422,423,424
"710",4,7,14,2,1,2,0,0,2,0,0,1982,15,1,"MIX",4,425,NA,NA,NA,NA,NA,NA
"711",4,7,15,2,1,8,0,0,2,1,1,783,430,0,"MIX",8,7,3,4,426,427,428,429
"712",4,7,16,2,1,4,0,0,1,1,0,774,433,0,"MIX",1,4,431,432,NA,NA,NA,NA
"713",4,7,17,1,1,2,1,2,1,1,1,491,8,1,"MIX",8,434,NA,NA,NA,NA,NA,NA
"714",4,7,18,2,1,8,0,0,1,0,1,873,8,1,"MIX",3,5,8,7,435,436,437,438
"715",4,7,19,1,1,2,1,2,1,1,1,569,439,0,"MIX",7,439,NA,NA,NA,NA,NA,NA
"716",4,7,20,2,1,8,0,0,1,1,0,660,10,1,"MIX",6,5,1,7,440,441,442,443
"717",4,7,21,2,1,2,0,0,2,1,1,619,445,0,"MIX",8,444,NA,NA,NA,NA,NA,NA
"718",4,7,22,1,1,8,6,3,1,1,1,580,448,0,"MIX",1,6,4,5,446,447,448,449
"719",4,7,23,2,1,4,0,0,2,1,1,1061,8,1,"MIX",5,2,450,451,NA,NA,NA,NA
"720",4,7,24,2,1,4,0,0,1,1,0,625,15,1,"MIX",1,2,452,453,NA,NA,NA,NA
"721",4,8,1,1,1,2,2,1,2,1,0,489,454,0,"MIX",3,454,NA,NA,NA,NA,NA,NA
"722",4,8,2,1,1,8,3,6,1,1,1,614,5,1,"MIX",1,5,3,4,455,456,457,458
"723",4,8,3,1,1,8,5,4,1,1,1,493,2,1,"MIX",7,4,3,2,459,460,461,462
"724",4,8,4,2,1,8,0,0,2,1,1,549,467,0,"MIX",7,3,4,1,463,464,465,466
"725",4,8,5,2,1,4,0,0,2,0,0,1847,15,1,"MIX",3,5,468,469,NA,NA,NA,NA
"726",4,8,6,2,1,2,0,0,2,1,1,479,2,1,"MIX",6,470,NA,NA,NA,NA,NA,NA
"727",4,8,7,2,1,4,0,0,2,1,1,755,8,1,"MIX",4,5,471,472,NA,NA,NA,NA
"728",4,8,8,2,1,2,0,0,1,1,0,600,10,1,"MIX",5,473,NA,NA,NA,NA,NA,NA
"729",4,8,9,1,1,4,4,1,2,1,0,631,6,1,"MIX",6,8,474,475,NA,NA,NA,NA
"730",4,8,10,1,1,4,4,1,2,1,0,485,1,1,"MIX",4,1,476,477,NA,NA,NA,NA
"731",4,8,11,1,1,2,1,2,1,1,1,516,478,0,"MIX",6,478,NA,NA,NA,NA,NA,NA
"732",4,8,12,2,1,2,0,0,2,1,1,563,480,0,"MIX",6,479,NA,NA,NA,NA,NA,NA
"733",4,8,13,1,1,4,4,1,1,1,1,611,481,0,"MIX",2,5,481,482,NA,NA,NA,NA
"734",4,8,14,1,1,2,1,2,2,1,0,764,483,0,"MIX",2,483,NA,NA,NA,NA,NA,NA
"735",4,8,15,2,1,8,0,0,2,1,1,958,7,1,"MIX",8,5,1,7,484,485,486,487
"736",4,8,16,2,1,2,0,0,1,1,0,538,11,1,"MIX",3,488,NA,NA,NA,NA,NA,NA
"737",4,8,17,1,1,2,2,1,2,1,0,503,489,0,"MIX",8,489,NA,NA,NA,NA,NA,NA
"738",4,8,18,2,1,8,0,0,2,1,1,790,2,1,"MIX",1,8,6,4,490,491,492,493
"739",4,8,19,2,1,2,0,0,2,1,1,457,7,1,"MIX",6,494,NA,NA,NA,NA,NA,NA
"740",4,8,20,1,1,8,2,7,1,1,1,1110,496,0,"MIX",3,7,2,5,495,496,497,498
"741",4,8,21,2,1,4,0,0,2,1,1,513,5,1,"MIX",4,6,499,500,NA,NA,NA,NA
"742",4,8,22,2,1,2,0,0,1,1,0,623,15,1,"MIX",7,501,NA,NA,NA,NA,NA,NA
"743",4,8,23,2,1,2,0,0,2,1,1,474,3,1,"MIX",3,502,NA,NA,NA,NA,NA,NA
"744",4,8,24,2,1,2,0,0,1,1,0,506,504,0,"MIX",1,503,NA,NA,NA,NA,NA,NA
"745",4,9,1,2,1,8,0,0,1,1,0,750,509,0,"MIX",1,8,2,5,505,506,507,508
"746",4,9,2,1,1,2,2,1,2,1,0,435,6,1,"MIX",6,510,NA,NA,NA,NA,NA,NA
"747",4,9,3,1,1,4,1,4,1,1,1,1352,7,1,"MIX",5,7,511,512,NA,NA,NA,NA
"748",4,9,4,2,1,8,0,0,1,1,0,644,517,0,"MIX",1,3,6,2,513,514,515,516
"749",4,9,5,1,1,4,1,4,2,1,0,736,519,0,"MIX",6,7,518,519,NA,NA,NA,NA
"750",4,9,6,2,1,8,0,0,1,1,0,883,16,1,"MIX",7,8,2,4,520,521,522,523
"751",4,9,7,2,1,2,0,0,1,1,0,576,525,0,"MIX",7,524,NA,NA,NA,NA,NA,NA
"752",4,9,8,1,1,8,6,3,1,1,1,635,1,1,"MIX",4,8,1,5,526,527,528,529
"753",4,9,9,2,1,8,0,0,2,1,1,816,3,1,"MIX",6,4,8,1,530,531,532,533
"754",4,9,10,2,1,4,0,0,2,1,1,615,536,0,"MIX",3,2,534,535,NA,NA,NA,NA
"755",4,9,11,1,1,4,3,2,1,1,1,551,538,0,"MIX",7,6,537,538,NA,NA,NA,NA
"756",4,9,12,1,1,4,3,2,2,1,0,665,7,1,"MIX",3,7,539,540,NA,NA,NA,NA
"757",4,9,13,1,1,2,2,1,1,1,1,449,4,1,"MIX",4,541,NA,NA,NA,NA,NA,NA
"758",4,9,14,2,1,2,0,0,2,1,1,769,543,0,"MIX",4,542,NA,NA,NA,NA,NA,NA
"759",4,9,15,2,1,4,0,0,1,1,0,904,546,0,"MIX",1,6,544,545,NA,NA,NA,NA
"760",4,9,16,1,1,4,2,3,1,1,1,970,7,1,"MIX",4,7,547,548,NA,NA,NA,NA
"761",4,9,17,2,1,2,0,0,1,1,0,517,550,0,"MIX",2,549,NA,NA,NA,NA,NA,NA
"762",4,9,18,1,1,4,2,3,2,1,0,712,6,1,"MIX",6,3,551,552,NA,NA,NA,NA
"763",4,9,19,2,1,8,0,0,2,1,1,634,5,1,"MIX",8,3,6,7,553,554,555,556
"764",4,9,20,2,1,8,0,0,1,0,1,931,5,1,"MIX",2,7,4,8,557,558,559,560
"765",4,9,21,2,1,4,0,0,1,1,0,709,11,1,"MIX",1,3,561,562,NA,NA,NA,NA
"766",4,9,22,1,1,4,2,3,2,1,0,943,6,1,"MIX",6,4,563,564,NA,NA,NA,NA
"767",4,9,23,2,1,8,0,0,1,1,0,730,13,1,"MIX",5,3,6,1,565,566,567,568
"768",4,9,24,1,1,8,4,5,1,1,1,859,571,0,"MIX",4,6,7,8,569,570,571,572
