"","Subnum","Block","Trial","Old","testcdisgard","Setsize","Serpos","Lag","Response","Correctness","Side","RT","WhichProbe","Stimkind","FileCondi","prob1","prob2","prob3","prob4","prob5","prob6","prob7","prob8"
"1",1,1,1,2,1,4,0,0,2,1,1,3702,14,1,"CMat",9,10,15,14,NA,NA,NA,NA
"2",1,1,2,2,1,2,0,0,1,1,0,1691,19,0,"CMat",17,18,NA,NA,NA,NA,NA,NA
"3",1,1,3,2,1,2,0,0,2,1,1,897,10,1,"CMat",10,16,NA,NA,NA,NA,NA,NA
"4",1,1,4,2,1,4,0,0,1,1,0,1466,24,0,"CMat",20,21,22,23,NA,NA,NA,NA
"5",1,1,5,2,1,4,0,0,1,1,0,1757,15,1,"CMat",4,6,3,5,NA,NA,NA,NA
"6",1,1,6,1,1,4,2,3,1,1,1,1188,26,0,"CMat",25,26,27,28,NA,NA,NA,NA
"7",1,1,7,2,1,4,0,0,2,1,1,674,15,1,"CMat",13,12,11,9,NA,NA,NA,NA
"8",1,1,8,1,1,4,4,1,2,1,0,853,32,0,"CMat",29,30,31,32,NA,NA,NA,NA
"9",1,1,9,2,1,4,0,0,2,1,1,700,9,1,"CMat",10,9,15,11,NA,NA,NA,NA
"10",1,1,10,1,1,8,6,3,1,1,1,936,38,0,"CMat",33,34,35,36,37,38,39,40
"11",1,1,11,1,1,8,7,2,1,1,1,911,3,1,"CMat",10,15,16,12,9,14,11,13
"12",1,1,12,1,1,4,3,2,1,1,1,776,43,0,"CMat",41,42,43,44,NA,NA,NA,NA
"13",1,1,13,2,1,8,0,0,2,1,1,614,13,1,"CMat",15,9,14,10,12,16,13,11
"14",1,1,14,1,1,8,1,8,1,1,1,804,45,0,"CMat",45,46,47,48,49,50,51,52
"15",1,1,15,2,1,2,0,0,2,1,1,1535,16,1,"CMat",15,11,NA,NA,NA,NA,NA,NA
"16",1,1,16,2,1,4,0,0,2,1,1,614,57,0,"CMat",53,54,55,56,NA,NA,NA,NA
"17",1,1,17,2,1,4,0,0,2,1,1,695,9,1,"CMat",13,9,10,12,NA,NA,NA,NA
"18",1,1,18,1,1,2,2,1,1,1,1,789,59,0,"CMat",58,59,NA,NA,NA,NA,NA,NA
"19",1,1,19,1,1,2,2,1,1,1,1,818,8,1,"CMat",14,16,NA,NA,NA,NA,NA,NA
"20",1,1,20,1,1,4,4,1,2,1,0,838,63,0,"CMat",60,61,62,63,NA,NA,NA,NA
"21",1,1,21,1,1,2,1,2,2,1,0,649,1,1,"CMat",1,8,NA,NA,NA,NA,NA,NA
"22",1,1,22,2,1,2,0,0,2,1,1,830,66,0,"CMat",64,65,NA,NA,NA,NA,NA,NA
"23",1,1,23,1,1,8,6,3,2,1,0,833,2,1,"CMat",8,7,4,6,5,2,3,1
"24",1,1,24,1,1,8,6,3,2,1,0,687,72,0,"CMat",67,68,69,70,71,72,73,74
"25",1,2,1,2,1,2,0,0,2,1,1,1214,15,1,"CMat",13,9,NA,NA,NA,NA,NA,NA
"26",1,2,2,1,1,4,1,4,2,1,0,827,75,0,"CMat",75,76,77,78,NA,NA,NA,NA
"27",1,2,3,1,1,4,1,4,1,1,1,755,5,1,"CMat",13,11,14,10,NA,NA,NA,NA
"28",1,2,4,1,1,8,5,4,1,1,1,1036,83,0,"CMat",79,80,81,82,83,84,85,86
"29",1,2,5,2,1,8,0,0,1,1,0,741,12,1,"CMat",5,6,1,3,8,7,4,2
"30",1,2,6,2,1,2,0,0,2,1,1,753,89,0,"CMat",87,88,NA,NA,NA,NA,NA,NA
"31",1,2,7,2,1,8,0,0,1,1,0,1087,13,1,"CMat",6,7,5,8,1,2,3,4
"32",1,2,8,2,1,8,0,0,2,1,1,873,98,0,"CMat",90,91,92,93,94,95,96,97
"33",1,2,9,2,1,2,0,0,2,1,1,946,16,1,"CMat",14,11,NA,NA,NA,NA,NA,NA
"34",1,2,10,2,1,2,0,0,2,1,1,486,101,0,"CMat",99,100,NA,NA,NA,NA,NA,NA
"35",1,2,11,1,1,4,1,4,1,1,1,884,7,1,"CMat",15,9,13,11,NA,NA,NA,NA
"36",1,2,12,1,1,2,2,1,2,1,0,850,103,0,"CMat",102,103,NA,NA,NA,NA,NA,NA
"37",1,2,13,1,1,4,3,2,2,1,0,922,7,1,"CMat",8,1,7,5,NA,NA,NA,NA
"38",1,2,14,1,1,2,2,1,1,1,1,830,105,0,"CMat",104,105,NA,NA,NA,NA,NA,NA
"39",1,2,15,2,1,8,0,0,1,1,0,890,13,1,"CMat",5,6,3,2,4,8,7,1
"40",1,2,16,2,1,8,0,0,1,1,0,689,114,0,"CMat",106,107,108,109,110,111,112,113
"41",1,2,17,2,1,4,0,0,1,1,0,695,13,1,"CMat",6,5,8,2,NA,NA,NA,NA
"42",1,2,18,1,1,2,1,2,1,1,1,766,115,0,"CMat",115,116,NA,NA,NA,NA,NA,NA
"43",1,2,19,1,1,2,1,2,2,1,0,691,5,1,"CMat",5,8,NA,NA,NA,NA,NA,NA
"44",1,2,20,1,1,4,2,3,2,1,0,910,118,0,"CMat",117,118,119,120,NA,NA,NA,NA
"45",1,2,21,1,1,2,1,2,2,1,0,509,6,1,"CMat",6,8,NA,NA,NA,NA,NA,NA
"46",1,2,22,2,1,4,0,0,2,1,1,703,125,0,"CMat",121,122,123,124,NA,NA,NA,NA
"47",1,2,23,2,1,8,0,0,1,1,0,447,13,1,"CMat",6,2,7,5,3,4,8,1
"48",1,2,24,1,1,2,1,2,2,1,0,833,126,0,"CMat",126,127,NA,NA,NA,NA,NA,NA
"49",1,3,1,2,1,8,0,0,2,1,1,681,9,1,"CMat",14,15,13,9,16,12,11,10
"50",1,3,2,2,1,8,0,0,2,1,1,498,136,0,"CMat",128,129,130,131,132,133,134,135
"51",1,3,3,2,1,8,0,0,2,1,1,858,16,1,"CMat",13,14,11,12,10,15,9,16
"52",1,3,4,1,1,2,2,1,2,1,0,850,138,0,"CMat",137,138,NA,NA,NA,NA,NA,NA
"53",1,3,5,1,1,2,2,1,2,1,0,604,1,1,"CMat",8,1,NA,NA,NA,NA,NA,NA
"54",1,3,6,1,1,2,1,2,1,1,1,1206,139,0,"CMat",139,140,NA,NA,NA,NA,NA,NA
"55",1,3,7,1,1,8,8,1,2,1,0,851,4,1,"CMat",6,2,5,3,8,1,7,4
"56",1,3,8,1,1,8,4,5,2,1,0,1221,144,0,"CMat",141,142,143,144,145,146,147,148
"57",1,3,9,2,1,4,0,0,1,1,0,629,15,1,"CMat",2,5,6,7,NA,NA,NA,NA
"58",1,3,10,2,1,2,0,0,1,1,0,750,151,0,"CMat",149,150,NA,NA,NA,NA,NA,NA
"59",1,3,11,1,1,8,2,7,2,0,1,1492,7,1,"CMat",12,15,9,13,10,16,11,14
"60",1,3,12,1,1,8,4,5,2,1,0,934,155,0,"CMat",152,153,154,155,156,157,158,159
"61",1,3,13,1,1,4,4,1,2,1,0,786,4,1,"CMat",6,2,7,4,NA,NA,NA,NA
"62",1,3,14,2,1,4,0,0,2,1,1,679,164,0,"CMat",160,161,162,163,NA,NA,NA,NA
"63",1,3,15,1,1,2,1,2,2,0,1,608,4,1,"CMat",12,14,NA,NA,NA,NA,NA,NA
"64",1,3,16,1,1,2,2,1,1,1,1,587,166,0,"CMat",165,166,NA,NA,NA,NA,NA,NA
"65",1,3,17,1,1,4,2,3,1,0,0,1085,1,1,"CMat",6,1,3,2,NA,NA,NA,NA
"66",1,3,18,2,1,2,0,0,2,1,1,1051,169,0,"CMat",167,168,NA,NA,NA,NA,NA,NA
"67",1,3,19,2,1,2,0,0,2,1,1,941,11,1,"CMat",11,14,NA,NA,NA,NA,NA,NA
"68",1,3,20,2,1,2,0,0,2,1,1,1345,172,0,"CMat",170,171,NA,NA,NA,NA,NA,NA
"69",1,3,21,1,1,8,2,7,1,1,1,1776,2,1,"CMat",11,10,12,16,9,14,13,15
"70",1,3,22,1,1,8,3,6,2,1,0,1317,175,0,"CMat",173,174,175,176,177,178,179,180
"71",1,3,23,1,1,2,2,1,2,1,0,1037,2,1,"CMat",5,2,NA,NA,NA,NA,NA,NA
"72",1,3,24,1,1,4,3,2,2,1,0,689,183,0,"CMat",181,182,183,184,NA,NA,NA,NA
"73",1,4,1,1,1,8,2,7,2,1,0,559,8,1,"CMat",5,8,1,7,4,3,6,2
"74",1,4,2,2,1,4,0,0,2,1,1,591,189,0,"CMat",185,186,187,188,NA,NA,NA,NA
"75",1,4,3,1,1,4,2,3,2,1,0,985,6,1,"CMat",5,6,1,7,NA,NA,NA,NA
"76",1,4,4,2,1,2,0,0,1,1,0,778,192,0,"CMat",190,191,NA,NA,NA,NA,NA,NA
"77",1,4,5,1,1,2,1,2,1,1,1,808,3,1,"CMat",11,13,NA,NA,NA,NA,NA,NA
"78",1,4,6,2,1,4,0,0,1,1,0,732,197,0,"CMat",193,194,195,196,NA,NA,NA,NA
"79",1,4,7,1,1,4,1,4,2,1,0,825,1,1,"CMat",1,2,4,8,NA,NA,NA,NA
"80",1,4,8,1,1,2,2,1,1,1,1,754,199,0,"CMat",198,199,NA,NA,NA,NA,NA,NA
"81",1,4,9,1,1,4,1,4,2,1,0,766,2,1,"CMat",2,4,3,8,NA,NA,NA,NA
"82",1,4,10,2,1,8,0,0,1,1,0,652,208,0,"CMat",200,201,202,203,204,205,206,207
"83",1,4,11,1,1,4,1,4,1,1,1,419,1,1,"CMat",9,16,12,13,NA,NA,NA,NA
"84",1,4,12,2,1,4,0,0,1,1,0,567,213,0,"CMat",209,210,211,212,NA,NA,NA,NA
"85",1,4,13,2,1,4,0,0,1,1,0,849,11,1,"CMat",2,8,4,5,NA,NA,NA,NA
"86",1,4,14,1,1,8,8,1,1,1,1,753,221,0,"CMat",214,215,216,217,218,219,220,221
"87",1,4,15,1,1,4,4,1,1,1,1,765,4,1,"CMat",15,11,16,12,NA,NA,NA,NA
"88",1,4,16,1,1,2,1,2,2,1,0,929,222,0,"CMat",222,223,NA,NA,NA,NA,NA,NA
"89",1,4,17,1,1,8,2,7,2,1,0,744,5,1,"CMat",7,5,4,3,2,1,6,8
"90",1,4,18,2,1,8,0,0,1,1,0,442,232,0,"CMat",224,225,226,227,228,229,230,231
"91",1,4,19,1,1,2,2,1,2,1,0,716,1,1,"CMat",4,1,NA,NA,NA,NA,NA,NA
"92",1,4,20,1,1,2,1,2,2,1,0,674,233,0,"CMat",233,234,NA,NA,NA,NA,NA,NA
"93",1,4,21,2,1,8,0,0,2,1,1,835,13,1,"CMat",13,14,12,16,15,9,10,11
"94",1,4,22,2,1,8,0,0,2,1,1,470,243,0,"CMat",235,236,237,238,239,240,241,242
"95",1,4,23,2,1,4,0,0,2,1,1,429,10,1,"CMat",10,13,9,15,NA,NA,NA,NA
"96",1,4,24,2,1,8,0,0,2,1,1,921,252,0,"CMat",244,245,246,247,248,249,250,251
"97",1,5,1,1,1,8,2,7,2,1,0,984,2,1,"CMat",3,2,7,8,4,5,6,1
"98",1,5,2,1,1,2,2,1,1,1,1,731,254,0,"CMat",253,254,NA,NA,NA,NA,NA,NA
"99",1,5,3,1,1,4,2,3,1,1,1,631,8,1,"CMat",15,16,11,14,NA,NA,NA,NA
"100",1,5,4,1,1,4,1,4,1,1,1,741,255,0,"CMat",255,256,257,258,NA,NA,NA,NA
"101",1,5,5,2,1,8,0,0,2,1,1,620,13,1,"CMat",16,12,9,13,10,14,15,11
"102",1,5,6,1,1,8,1,8,2,1,0,888,259,0,"CMat",259,260,261,262,263,264,265,266
"103",1,5,7,2,1,8,0,0,2,1,1,817,12,1,"CMat",10,15,16,9,11,13,12,14
"104",1,5,8,1,1,4,3,2,1,1,1,950,269,0,"CMat",267,268,269,270,NA,NA,NA,NA
"105",1,5,9,2,1,2,0,0,1,1,0,772,9,1,"CMat",7,5,NA,NA,NA,NA,NA,NA
"106",1,5,10,2,1,4,0,0,1,1,0,1314,275,0,"CMat",271,272,273,274,NA,NA,NA,NA
"107",1,5,11,2,1,8,0,0,2,1,1,818,13,1,"CMat",14,11,12,13,9,15,16,10
"108",1,5,12,1,1,2,2,1,1,1,1,812,277,0,"CMat",276,277,NA,NA,NA,NA,NA,NA
"109",1,5,13,1,1,4,4,1,2,1,0,701,6,1,"CMat",2,3,4,6,NA,NA,NA,NA
"110",1,5,14,2,1,8,0,0,2,0,0,1301,286,0,"CMat",278,279,280,281,282,283,284,285
"111",1,5,15,2,1,4,0,0,1,1,0,2282,11,1,"CMat",4,1,2,7,NA,NA,NA,NA
"112",1,5,16,2,1,4,0,0,1,1,0,717,291,0,"CMat",287,288,289,290,NA,NA,NA,NA
"113",1,5,17,2,1,2,0,0,2,1,1,557,16,1,"CMat",12,11,NA,NA,NA,NA,NA,NA
"114",1,5,18,1,1,4,3,2,2,1,0,1197,294,0,"CMat",292,293,294,295,NA,NA,NA,NA
"115",1,5,19,1,1,8,2,7,2,1,0,714,4,1,"CMat",8,4,3,1,5,6,2,7
"116",1,5,20,1,1,2,1,2,2,1,0,656,296,0,"CMat",296,297,NA,NA,NA,NA,NA,NA
"117",1,5,21,2,1,8,0,0,1,1,0,938,10,1,"CMat",4,3,1,7,5,2,8,6
"118",1,5,22,2,1,4,0,0,2,1,1,899,302,0,"CMat",298,299,300,301,NA,NA,NA,NA
"119",1,5,23,2,1,4,0,0,2,0,0,2048,10,1,"CMat",3,8,7,2,NA,NA,NA,NA
"120",1,5,24,1,1,2,1,2,1,1,1,761,303,0,"CMat",303,304,NA,NA,NA,NA,NA,NA
"121",1,6,1,2,1,8,0,0,2,1,1,702,15,1,"CMat",9,16,10,15,13,14,11,12
"122",1,6,2,2,1,8,0,0,1,1,0,703,313,0,"CMat",305,306,307,308,309,310,311,312
"123",1,6,3,1,1,8,2,7,2,1,0,2295,8,1,"CMat",2,8,6,5,3,7,1,4
"124",1,6,4,2,1,8,0,0,1,1,0,747,322,0,"CMat",314,315,316,317,318,319,320,321
"125",1,6,5,1,1,2,1,2,2,1,0,778,8,1,"CMat",8,3,NA,NA,NA,NA,NA,NA
"126",1,6,6,1,1,2,2,1,2,1,0,477,324,0,"CMat",323,324,NA,NA,NA,NA,NA,NA
"127",1,6,7,1,1,2,1,2,1,1,1,567,5,1,"CMat",13,15,NA,NA,NA,NA,NA,NA
"128",1,6,8,1,1,2,1,2,2,1,0,642,325,0,"CMat",325,326,NA,NA,NA,NA,NA,NA
"129",1,6,9,2,1,4,0,0,1,1,0,1050,16,1,"CMat",2,4,6,8,NA,NA,NA,NA
"130",1,6,10,2,1,8,0,0,1,1,0,542,335,0,"CMat",327,328,329,330,331,332,333,334
"131",1,6,11,2,1,8,0,0,2,1,1,677,10,1,"CMat",10,9,13,11,15,14,16,12
"132",1,6,12,1,1,8,6,3,2,1,0,1264,341,0,"CMat",336,337,338,339,340,341,342,343
"133",1,6,13,1,1,4,2,3,2,1,0,687,3,1,"CMat",4,3,1,6,NA,NA,NA,NA
"134",1,6,14,1,1,2,1,2,2,1,0,485,344,0,"CMat",344,345,NA,NA,NA,NA,NA,NA
"135",1,6,15,1,1,8,7,2,2,1,0,686,1,1,"CMat",5,8,6,7,3,2,1,4
"136",1,6,16,1,1,4,4,1,1,1,1,681,349,0,"CMat",346,347,348,349,NA,NA,NA,NA
"137",1,6,17,1,1,8,3,6,2,1,0,578,5,1,"CMat",2,6,5,3,8,4,1,7
"138",1,6,18,1,1,2,2,1,2,1,0,414,351,0,"CMat",350,351,NA,NA,NA,NA,NA,NA
"139",1,6,19,2,1,8,0,0,2,1,1,785,13,1,"CMat",9,16,11,14,15,12,13,10
"140",1,6,20,1,1,4,2,3,2,1,0,568,353,0,"CMat",352,353,354,355,NA,NA,NA,NA
"141",1,6,21,1,1,2,1,2,1,1,1,518,1,1,"CMat",9,11,NA,NA,NA,NA,NA,NA
"142",1,6,22,1,1,8,7,2,2,1,0,935,362,0,"CMat",356,357,358,359,360,361,362,363
"143",1,6,23,2,1,2,0,0,2,1,1,830,11,1,"CMat",13,12,NA,NA,NA,NA,NA,NA
"144",1,6,24,1,1,4,2,3,2,1,0,764,365,0,"CMat",364,365,366,367,NA,NA,NA,NA
"145",1,7,1,2,1,2,0,0,2,1,1,648,12,1,"CMat",12,11,NA,NA,NA,NA,NA,NA
"146",1,7,2,2,1,8,0,0,2,1,1,1043,376,0,"CMat",368,369,370,371,372,373,374,375
"147",1,7,3,1,1,8,3,6,2,1,0,1766,2,1,"CMat",6,7,2,8,1,3,4,5
"148",1,7,4,2,1,2,0,0,2,1,1,737,379,0,"CMat",377,378,NA,NA,NA,NA,NA,NA
"149",1,7,5,2,1,8,0,0,2,1,1,688,13,1,"CMat",9,10,14,12,15,11,13,16
"150",1,7,6,2,1,2,0,0,1,1,0,1438,382,0,"CMat",380,381,NA,NA,NA,NA,NA,NA
"151",1,7,7,2,1,4,0,0,2,1,1,503,10,1,"CMat",10,14,12,16,NA,NA,NA,NA
"152",1,7,8,2,1,2,0,0,2,1,1,1124,385,0,"CMat",383,384,NA,NA,NA,NA,NA,NA
"153",1,7,9,2,1,4,0,0,1,1,0,881,12,1,"CMat",8,6,5,7,NA,NA,NA,NA
"154",1,7,10,2,1,8,0,0,2,1,1,571,394,0,"CMat",386,387,388,389,390,391,392,393
"155",1,7,11,2,1,4,0,0,1,1,0,1726,14,1,"CMat",2,1,7,5,NA,NA,NA,NA
"156",1,7,12,1,1,8,7,2,2,1,0,1027,401,0,"CMat",395,396,397,398,399,400,401,402
"157",1,7,13,2,1,8,0,0,2,1,1,574,16,1,"CMat",16,9,12,11,15,10,14,13
"158",1,7,14,1,1,4,3,2,1,1,1,942,405,0,"CMat",403,404,405,406,NA,NA,NA,NA
"159",1,7,15,1,1,8,8,1,2,1,0,684,2,1,"CMat",8,4,1,3,5,7,6,2
"160",1,7,16,1,1,8,1,8,1,1,1,624,407,0,"CMat",407,408,409,410,411,412,413,414
"161",1,7,17,1,1,4,1,4,1,1,1,720,7,1,"CMat",15,9,13,14,NA,NA,NA,NA
"162",1,7,18,2,1,8,0,0,2,1,1,903,423,0,"CMat",415,416,417,418,419,420,421,422
"163",1,7,19,2,1,2,0,0,1,1,0,847,11,1,"CMat",8,4,NA,NA,NA,NA,NA,NA
"164",1,7,20,1,1,4,2,3,2,0,1,660,425,0,"CMat",424,425,426,427,NA,NA,NA,NA
"165",1,7,21,1,1,8,1,8,1,1,1,814,3,1,"CMat",11,16,10,15,14,13,9,12
"166",1,7,22,1,1,2,2,1,2,1,0,743,429,0,"CMat",428,429,NA,NA,NA,NA,NA,NA
"167",1,7,23,1,1,8,3,6,1,1,1,790,6,1,"CMat",9,15,14,13,11,16,10,12
"168",1,7,24,1,1,4,3,2,1,1,1,2245,432,0,"CMat",430,431,432,433,NA,NA,NA,NA
"169",1,8,1,2,1,4,0,0,1,1,0,690,12,1,"CMat",2,5,8,3,NA,NA,NA,NA
"170",1,8,2,2,1,2,0,0,1,1,0,705,436,0,"CMat",434,435,NA,NA,NA,NA,NA,NA
"171",1,8,3,2,1,4,0,0,1,1,0,502,10,1,"CMat",7,6,8,2,NA,NA,NA,NA
"172",1,8,4,1,1,4,1,4,1,1,1,791,437,0,"CMat",437,438,439,440,NA,NA,NA,NA
"173",1,8,5,2,1,8,0,0,2,1,1,699,10,1,"CMat",16,15,10,11,13,14,9,12
"174",1,8,6,1,1,4,3,2,1,1,1,789,443,0,"CMat",441,442,443,444,NA,NA,NA,NA
"175",1,8,7,2,1,8,0,0,2,1,1,602,10,1,"CMat",11,13,10,16,15,14,12,9
"176",1,8,8,1,1,8,1,8,2,1,0,1007,445,0,"CMat",445,446,447,448,449,450,451,452
"177",1,8,9,1,1,8,4,5,2,1,0,555,3,1,"CMat",5,1,7,3,2,4,8,6
"178",1,8,10,2,1,4,0,0,2,1,1,514,457,0,"CMat",453,454,455,456,NA,NA,NA,NA
"179",1,8,11,2,1,4,0,0,2,1,1,624,12,1,"CMat",15,14,13,9,NA,NA,NA,NA
"180",1,8,12,1,1,8,7,2,1,1,1,1373,464,0,"CMat",458,459,460,461,462,463,464,465
"181",1,8,13,1,1,4,3,2,1,1,1,616,6,1,"CMat",9,10,14,15,NA,NA,NA,NA
"182",1,8,14,2,1,8,0,0,2,1,1,706,474,0,"CMat",466,467,468,469,470,471,472,473
"183",1,8,15,2,1,8,0,0,1,1,0,682,14,1,"CMat",2,8,7,4,5,3,6,1
"184",1,8,16,1,1,2,1,2,1,1,1,770,475,0,"CMat",475,476,NA,NA,NA,NA,NA,NA
"185",1,8,17,1,1,8,2,7,2,1,0,559,8,1,"CMat",1,8,6,4,2,3,7,5
"186",1,8,18,2,1,8,0,0,2,1,1,589,485,0,"CMat",477,478,479,480,481,482,483,484
"187",1,8,19,1,1,8,7,2,2,1,0,642,4,1,"CMat",3,8,6,7,5,1,4,2
"188",1,8,20,1,1,4,2,3,2,1,0,1573,487,0,"CMat",486,487,488,489,NA,NA,NA,NA
"189",1,8,21,2,1,4,0,0,1,1,0,768,14,1,"CMat",1,6,5,2,NA,NA,NA,NA
"190",1,8,22,1,1,4,3,2,1,1,1,1063,492,0,"CMat",490,491,492,493,NA,NA,NA,NA
"191",1,8,23,1,1,2,2,1,1,1,1,473,7,1,"CMat",10,15,NA,NA,NA,NA,NA,NA
"192",1,8,24,1,1,2,2,1,1,1,1,353,495,0,"CMat",494,495,NA,NA,NA,NA,NA,NA
"193",1,9,1,1,1,2,1,2,2,1,0,401,7,1,"CMat",7,8,NA,NA,NA,NA,NA,NA
"194",1,9,2,1,1,8,3,6,1,1,1,702,498,0,"CMat",496,497,498,499,500,501,502,503
"195",1,9,3,2,1,2,0,0,1,1,0,758,13,1,"CMat",1,6,NA,NA,NA,NA,NA,NA
"196",1,9,4,2,1,2,0,0,1,1,0,641,506,0,"CMat",504,505,NA,NA,NA,NA,NA,NA
"197",1,9,5,2,1,2,0,0,1,1,0,539,11,1,"CMat",2,1,NA,NA,NA,NA,NA,NA
"198",1,9,6,2,1,8,0,0,1,1,0,474,515,0,"CMat",507,508,509,510,511,512,513,514
"199",1,9,7,1,1,2,2,1,2,1,0,595,7,1,"CMat",1,7,NA,NA,NA,NA,NA,NA
"200",1,9,8,1,1,8,6,3,2,1,0,1595,521,0,"CMat",516,517,518,519,520,521,522,523
"201",1,9,9,1,1,4,1,4,2,1,0,516,7,1,"CMat",7,6,3,1,NA,NA,NA,NA
"202",1,9,10,1,1,2,1,2,2,1,0,451,524,0,"CMat",524,525,NA,NA,NA,NA,NA,NA
"203",1,9,11,2,1,4,0,0,2,1,1,690,13,1,"CMat",14,10,16,13,NA,NA,NA,NA
"204",1,9,12,1,1,2,1,2,1,1,1,745,526,0,"CMat",526,527,NA,NA,NA,NA,NA,NA
"205",1,9,13,1,1,8,3,6,1,1,1,424,4,1,"CMat",10,16,12,11,15,9,13,14
"206",1,9,14,2,1,2,0,0,2,1,1,569,530,0,"CMat",528,529,NA,NA,NA,NA,NA,NA
"207",1,9,15,2,1,8,0,0,2,1,1,542,11,1,"CMat",14,16,12,9,11,10,15,13
"208",1,9,16,2,1,2,0,0,2,1,1,513,533,0,"CMat",531,532,NA,NA,NA,NA,NA,NA
"209",1,9,17,1,1,8,5,4,2,1,0,713,2,1,"CMat",5,4,8,7,2,3,6,1
"210",1,9,18,2,1,2,0,0,1,1,0,535,536,0,"CMat",534,535,NA,NA,NA,NA,NA,NA
"211",1,9,19,2,1,2,0,0,1,1,0,454,10,1,"CMat",1,6,NA,NA,NA,NA,NA,NA
"212",1,9,20,2,1,2,0,0,2,1,1,421,539,0,"CMat",537,538,NA,NA,NA,NA,NA,NA
"213",1,9,21,2,1,4,0,0,1,1,0,734,10,1,"CMat",3,2,1,8,NA,NA,NA,NA
"214",1,9,22,2,1,4,0,0,2,1,1,718,544,0,"CMat",540,541,542,543,NA,NA,NA,NA
"215",1,9,23,2,1,8,0,0,2,1,1,654,9,1,"CMat",16,9,12,13,15,11,10,14
"216",1,9,24,2,1,8,0,0,2,1,1,1735,553,0,"CMat",545,546,547,548,549,550,551,552
"217",2,1,1,1,1,4,3,2,1,1,1,1703,4,1,"CMat",10,9,12,13,NA,NA,NA,NA
"218",2,1,2,2,1,8,0,0,2,1,1,1504,25,0,"CMat",17,18,19,20,21,22,23,24
"219",2,1,3,1,1,8,5,4,2,1,0,1173,3,1,"CMat",5,8,7,6,3,1,2,4
"220",2,1,4,2,1,8,0,0,2,1,1,2552,34,0,"CMat",26,27,28,29,30,31,32,33
"221",2,1,5,1,1,2,2,1,2,1,0,1270,4,1,"CMat",6,4,NA,NA,NA,NA,NA,NA
"222",2,1,6,2,1,8,0,0,1,1,0,803,43,0,"CMat",35,36,37,38,39,40,41,42
"223",2,1,7,1,1,2,1,2,2,1,0,679,2,1,"CMat",2,3,NA,NA,NA,NA,NA,NA
"224",2,1,8,1,1,4,2,3,2,1,0,610,45,0,"CMat",44,45,46,47,NA,NA,NA,NA
"225",2,1,9,2,1,2,0,0,2,1,1,733,15,1,"CMat",14,15,NA,NA,NA,NA,NA,NA
"226",2,1,10,1,1,4,3,2,1,1,1,743,50,0,"CMat",48,49,50,51,NA,NA,NA,NA
"227",2,1,11,1,1,4,1,4,2,1,0,658,5,1,"CMat",5,1,6,7,NA,NA,NA,NA
"228",2,1,12,1,1,2,1,2,1,1,1,507,52,0,"CMat",52,53,NA,NA,NA,NA,NA,NA
"229",2,1,13,2,1,4,0,0,2,1,1,623,11,1,"CMat",10,9,11,13,NA,NA,NA,NA
"230",2,1,14,2,1,4,0,0,2,1,1,604,58,0,"CMat",54,55,56,57,NA,NA,NA,NA
"231",2,1,15,2,1,4,0,0,2,1,1,637,11,1,"CMat",16,10,9,14,NA,NA,NA,NA
"232",2,1,16,1,1,4,1,4,1,1,1,474,59,0,"CMat",59,60,61,62,NA,NA,NA,NA
"233",2,1,17,1,1,8,6,3,2,1,0,844,1,1,"CMat",6,7,4,3,8,1,2,5
"234",2,1,18,2,1,2,0,0,2,1,1,603,65,0,"CMat",63,64,NA,NA,NA,NA,NA,NA
"235",2,1,19,1,1,4,1,4,1,1,1,1133,8,1,"CMat",16,10,15,9,NA,NA,NA,NA
"236",2,1,20,2,1,4,0,0,1,1,0,822,70,0,"CMat",66,67,68,69,NA,NA,NA,NA
"237",2,1,21,2,1,2,0,0,2,1,1,553,9,1,"CMat",16,12,NA,NA,NA,NA,NA,NA
"238",2,1,22,1,1,2,1,2,1,1,1,583,71,0,"CMat",71,72,NA,NA,NA,NA,NA,NA
"239",2,1,23,2,1,2,0,0,2,1,1,531,12,1,"CMat",13,10,NA,NA,NA,NA,NA,NA
"240",2,1,24,1,1,2,2,1,2,1,0,641,74,0,"CMat",73,74,NA,NA,NA,NA,NA,NA
"241",2,2,1,2,1,8,0,0,2,1,1,583,9,1,"CMat",11,16,15,12,14,10,13,9
"242",2,2,2,2,1,8,0,0,2,1,1,607,83,0,"CMat",75,76,77,78,79,80,81,82
"243",2,2,3,2,1,2,0,0,2,1,1,458,10,1,"CMat",14,10,NA,NA,NA,NA,NA,NA
"244",2,2,4,2,1,4,0,0,1,1,0,511,88,0,"CMat",84,85,86,87,NA,NA,NA,NA
"245",2,2,5,1,1,2,1,2,2,1,0,510,2,1,"CMat",2,1,NA,NA,NA,NA,NA,NA
"246",2,2,6,2,1,4,0,0,2,1,1,623,93,0,"CMat",89,90,91,92,NA,NA,NA,NA
"247",2,2,7,1,1,4,3,2,2,1,0,639,8,1,"CMat",6,3,8,7,NA,NA,NA,NA
"248",2,2,8,2,1,4,0,0,2,1,1,524,98,0,"CMat",94,95,96,97,NA,NA,NA,NA
"249",2,2,9,1,1,8,2,7,1,1,1,587,4,1,"CMat",14,12,13,16,15,9,11,10
"250",2,2,10,2,1,8,0,0,2,1,1,515,107,0,"CMat",99,100,101,102,103,104,105,106
"251",2,2,11,1,1,2,2,1,1,1,1,515,7,1,"CMat",10,15,NA,NA,NA,NA,NA,NA
"252",2,2,12,2,1,4,0,0,1,1,0,756,112,0,"CMat",108,109,110,111,NA,NA,NA,NA
"253",2,2,13,1,1,8,4,5,2,1,0,649,8,1,"CMat",4,6,1,8,7,3,2,5
"254",2,2,14,1,1,4,3,2,2,1,0,421,115,0,"CMat",113,114,115,116,NA,NA,NA,NA
"255",2,2,15,2,1,8,0,0,1,1,0,712,13,1,"CMat",1,4,6,8,3,2,7,5
"256",2,2,16,1,1,2,2,1,2,1,0,463,118,0,"CMat",117,118,NA,NA,NA,NA,NA,NA
"257",2,2,17,2,1,2,0,0,2,1,1,561,11,1,"CMat",13,15,NA,NA,NA,NA,NA,NA
"258",2,2,18,1,1,2,1,2,2,1,0,589,119,0,"CMat",119,120,NA,NA,NA,NA,NA,NA
"259",2,2,19,1,1,8,1,8,2,1,0,745,5,1,"CMat",5,2,3,8,4,7,1,6
"260",2,2,20,1,1,2,1,2,1,1,1,749,121,0,"CMat",121,122,NA,NA,NA,NA,NA,NA
"261",2,2,21,2,1,4,0,0,2,1,1,568,9,1,"CMat",16,11,10,13,NA,NA,NA,NA
"262",2,2,22,2,1,8,0,0,2,1,1,504,131,0,"CMat",123,124,125,126,127,128,129,130
"263",2,2,23,1,1,4,2,3,1,1,1,589,8,1,"CMat",12,16,11,14,NA,NA,NA,NA
"264",2,2,24,2,1,2,0,0,2,1,1,488,134,0,"CMat",132,133,NA,NA,NA,NA,NA,NA
"265",2,3,1,1,1,4,1,4,2,1,0,655,4,1,"CMat",4,6,1,7,NA,NA,NA,NA
"266",2,3,2,2,1,2,0,0,1,1,0,994,137,0,"CMat",135,136,NA,NA,NA,NA,NA,NA
"267",2,3,3,1,1,2,1,2,2,1,0,606,8,1,"CMat",8,1,NA,NA,NA,NA,NA,NA
"268",2,3,4,1,1,4,3,2,1,1,1,573,140,0,"CMat",138,139,140,141,NA,NA,NA,NA
"269",2,3,5,1,1,8,4,5,2,1,0,490,8,1,"CMat",3,7,4,8,5,2,1,6
"270",2,3,6,2,1,2,0,0,1,1,0,570,144,0,"CMat",142,143,NA,NA,NA,NA,NA,NA
"271",2,3,7,2,1,4,0,0,2,1,1,812,16,1,"CMat",13,15,16,9,NA,NA,NA,NA
"272",2,3,8,1,1,4,4,1,1,1,1,769,148,0,"CMat",145,146,147,148,NA,NA,NA,NA
"273",2,3,9,2,1,8,0,0,1,1,0,710,9,1,"CMat",1,5,6,8,3,4,7,2
"274",2,3,10,1,1,8,5,4,2,1,0,985,153,0,"CMat",149,150,151,152,153,154,155,156
"275",2,3,11,1,1,8,7,2,2,1,0,613,8,1,"CMat",2,5,1,6,7,4,8,3
"276",2,3,12,2,1,8,0,0,2,1,1,581,165,0,"CMat",157,158,159,160,161,162,163,164
"277",2,3,13,2,1,4,0,0,2,1,1,519,10,1,"CMat",9,15,11,12,NA,NA,NA,NA
"278",2,3,14,1,1,2,1,2,2,1,0,1231,166,0,"CMat",166,167,NA,NA,NA,NA,NA,NA
"279",2,3,15,2,1,4,0,0,2,1,1,582,14,1,"CMat",16,11,10,13,NA,NA,NA,NA
"280",2,3,16,1,1,4,3,2,2,1,0,773,170,0,"CMat",168,169,170,171,NA,NA,NA,NA
"281",2,3,17,2,1,4,0,0,1,1,0,864,10,1,"CMat",7,6,4,8,NA,NA,NA,NA
"282",2,3,18,2,1,4,0,0,1,1,0,592,176,0,"CMat",172,173,174,175,NA,NA,NA,NA
"283",2,3,19,2,1,4,0,0,2,1,1,562,12,1,"CMat",15,14,13,9,NA,NA,NA,NA
"284",2,3,20,1,1,4,1,4,2,1,0,561,177,0,"CMat",177,178,179,180,NA,NA,NA,NA
"285",2,3,21,1,1,4,1,4,2,1,0,515,4,1,"CMat",4,6,5,8,NA,NA,NA,NA
"286",2,3,22,1,1,2,2,1,1,1,1,639,182,0,"CMat",181,182,NA,NA,NA,NA,NA,NA
"287",2,3,23,2,1,2,0,0,1,1,0,537,10,1,"CMat",4,7,NA,NA,NA,NA,NA,NA
"288",2,3,24,1,1,4,1,4,2,1,0,490,183,0,"CMat",183,184,185,186,NA,NA,NA,NA
"289",2,4,1,2,1,4,0,0,1,1,0,616,14,1,"CMat",4,1,8,3,NA,NA,NA,NA
"290",2,4,2,1,1,8,8,1,1,1,1,556,194,0,"CMat",187,188,189,190,191,192,193,194
"291",2,4,3,2,1,4,0,0,2,1,1,431,9,1,"CMat",12,15,9,14,NA,NA,NA,NA
"292",2,4,4,2,1,2,0,0,1,1,0,462,197,0,"CMat",195,196,NA,NA,NA,NA,NA,NA
"293",2,4,5,1,1,2,2,1,2,1,0,431,4,1,"CMat",8,4,NA,NA,NA,NA,NA,NA
"294",2,4,6,2,1,2,0,0,2,1,1,462,200,0,"CMat",198,199,NA,NA,NA,NA,NA,NA
"295",2,4,7,1,1,8,1,8,2,1,0,527,3,1,"CMat",3,7,8,1,6,5,4,2
"296",2,4,8,2,1,2,0,0,2,1,1,442,203,0,"CMat",201,202,NA,NA,NA,NA,NA,NA
"297",2,4,9,1,1,8,8,1,1,1,1,892,8,1,"CMat",10,13,15,12,11,9,14,16
"298",2,4,10,1,1,8,5,4,1,1,1,676,208,0,"CMat",204,205,206,207,208,209,210,211
"299",2,4,11,2,1,4,0,0,1,1,0,706,16,1,"CMat",4,3,1,2,NA,NA,NA,NA
"300",2,4,12,2,1,8,0,0,1,1,0,591,220,0,"CMat",212,213,214,215,216,217,218,219
"301",2,4,13,2,1,8,0,0,1,1,0,731,11,1,"CMat",2,8,4,7,3,1,6,5
"302",2,4,14,2,1,2,0,0,2,1,1,383,223,0,"CMat",221,222,NA,NA,NA,NA,NA,NA
"303",2,4,15,1,1,4,3,2,2,1,0,761,4,1,"CMat",7,2,4,6,NA,NA,NA,NA
"304",2,4,16,2,1,2,0,0,2,1,1,428,226,0,"CMat",224,225,NA,NA,NA,NA,NA,NA
"305",2,4,17,2,1,8,0,0,1,1,0,558,9,1,"CMat",6,5,8,1,4,7,3,2
"306",2,4,18,2,1,8,0,0,2,1,1,561,235,0,"CMat",227,228,229,230,231,232,233,234
"307",2,4,19,2,1,4,0,0,2,1,1,531,9,1,"CMat",11,10,9,12,NA,NA,NA,NA
"308",2,4,20,2,1,2,0,0,2,1,1,496,238,0,"CMat",236,237,NA,NA,NA,NA,NA,NA
"309",2,4,21,1,1,8,5,4,2,1,0,768,3,1,"CMat",4,8,7,2,3,6,5,1
"310",2,4,22,2,1,2,0,0,2,1,1,403,241,0,"CMat",239,240,NA,NA,NA,NA,NA,NA
"311",2,4,23,1,1,4,1,4,2,1,0,476,1,1,"CMat",1,2,6,3,NA,NA,NA,NA
"312",2,4,24,2,1,4,0,0,2,1,1,862,246,0,"CMat",242,243,244,245,NA,NA,NA,NA
"313",2,5,1,2,1,2,0,0,1,1,0,423,16,1,"CMat",5,8,NA,NA,NA,NA,NA,NA
"314",2,5,2,1,1,4,1,4,1,1,1,764,247,0,"CMat",247,248,249,250,NA,NA,NA,NA
"315",2,5,3,1,1,2,2,1,1,1,1,530,5,1,"CMat",14,13,NA,NA,NA,NA,NA,NA
"316",2,5,4,2,1,2,0,0,1,1,0,477,253,0,"CMat",251,252,NA,NA,NA,NA,NA,NA
"317",2,5,5,1,1,2,1,2,2,1,0,461,8,1,"CMat",8,3,NA,NA,NA,NA,NA,NA
"318",2,5,6,2,1,2,0,0,2,1,1,395,256,0,"CMat",254,255,NA,NA,NA,NA,NA,NA
"319",2,5,7,2,1,2,0,0,2,1,1,479,12,1,"CMat",16,12,NA,NA,NA,NA,NA,NA
"320",2,5,8,1,1,8,7,2,2,1,0,569,263,0,"CMat",257,258,259,260,261,262,263,264
"321",2,5,9,1,1,2,1,2,2,1,0,438,1,1,"CMat",1,6,NA,NA,NA,NA,NA,NA
"322",2,5,10,1,1,2,2,1,1,1,1,679,266,0,"CMat",265,266,NA,NA,NA,NA,NA,NA
"323",2,5,11,1,1,2,1,2,1,1,1,512,7,1,"CMat",15,14,NA,NA,NA,NA,NA,NA
"324",2,5,12,2,1,2,0,0,1,1,0,477,269,0,"CMat",267,268,NA,NA,NA,NA,NA,NA
"325",2,5,13,1,1,4,3,2,1,1,1,627,6,1,"CMat",15,10,14,13,NA,NA,NA,NA
"326",2,5,14,2,1,8,0,0,2,1,1,563,278,0,"CMat",270,271,272,273,274,275,276,277
"327",2,5,15,2,1,4,0,0,2,1,1,437,11,1,"CMat",9,10,16,14,NA,NA,NA,NA
"328",2,5,16,1,1,8,3,6,1,0,0,577,281,0,"CMat",279,280,281,282,283,284,285,286
"329",2,5,17,2,1,8,0,0,2,1,1,669,16,1,"CMat",11,13,12,10,9,14,15,16
"330",2,5,18,1,1,8,2,7,1,1,1,703,288,0,"CMat",287,288,289,290,291,292,293,294
"331",2,5,19,1,1,8,6,3,2,1,0,646,3,1,"CMat",8,2,6,5,7,3,1,4
"332",2,5,20,1,1,2,2,1,2,1,0,478,296,0,"CMat",295,296,NA,NA,NA,NA,NA,NA
"333",2,5,21,1,1,4,3,2,2,1,0,852,3,1,"CMat",5,2,3,7,NA,NA,NA,NA
"334",2,5,22,2,1,4,0,0,1,1,0,630,301,0,"CMat",297,298,299,300,NA,NA,NA,NA
"335",2,5,23,2,1,8,0,0,1,1,0,640,10,1,"CMat",7,3,6,1,2,4,5,8
"336",2,5,24,2,1,4,0,0,2,1,1,524,306,0,"CMat",302,303,304,305,NA,NA,NA,NA
"337",2,6,1,1,1,2,1,2,1,1,1,486,4,1,"CMat",12,15,NA,NA,NA,NA,NA,NA
"338",2,6,2,2,1,8,0,0,1,1,0,526,315,0,"CMat",307,308,309,310,311,312,313,314
"339",2,6,3,1,1,2,1,2,1,1,1,636,8,1,"CMat",16,10,NA,NA,NA,NA,NA,NA
"340",2,6,4,2,1,8,0,0,2,1,1,832,324,0,"CMat",316,317,318,319,320,321,322,323
"341",2,6,5,1,1,2,1,2,1,1,1,418,5,1,"CMat",13,12,NA,NA,NA,NA,NA,NA
"342",2,6,6,2,1,2,0,0,2,1,1,418,327,0,"CMat",325,326,NA,NA,NA,NA,NA,NA
"343",2,6,7,1,1,2,2,1,1,1,1,438,3,1,"CMat",13,11,NA,NA,NA,NA,NA,NA
"344",2,6,8,2,1,8,0,0,2,1,1,526,336,0,"CMat",328,329,330,331,332,333,334,335
"345",2,6,9,2,1,8,0,0,2,1,1,700,16,1,"CMat",12,10,16,15,13,11,14,9
"346",2,6,10,2,1,8,0,0,1,1,0,603,345,0,"CMat",337,338,339,340,341,342,343,344
"347",2,6,11,1,1,2,1,2,1,1,1,487,4,1,"CMat",12,15,NA,NA,NA,NA,NA,NA
"348",2,6,12,1,1,8,2,7,1,1,1,590,347,0,"CMat",346,347,348,349,350,351,352,353
"349",2,6,13,1,1,4,3,2,2,1,0,1328,8,1,"CMat",2,1,8,3,NA,NA,NA,NA
"350",2,6,14,1,1,2,2,1,1,1,1,397,355,0,"CMat",354,355,NA,NA,NA,NA,NA,NA
"351",2,6,15,2,1,2,0,0,1,1,0,433,9,1,"CMat",2,7,NA,NA,NA,NA,NA,NA
"352",2,6,16,1,1,8,6,3,2,1,0,571,361,0,"CMat",356,357,358,359,360,361,362,363
"353",2,6,17,2,1,8,0,0,2,1,1,664,14,1,"CMat",11,9,13,14,15,12,10,16
"354",2,6,18,1,1,8,1,8,1,1,1,571,364,0,"CMat",364,365,366,367,368,369,370,371
"355",2,6,19,1,1,8,4,5,2,1,0,584,8,1,"CMat",4,3,5,8,6,1,7,2
"356",2,6,20,1,1,2,1,2,1,1,1,481,372,0,"CMat",372,373,NA,NA,NA,NA,NA,NA
"357",2,6,21,1,1,8,4,5,2,1,0,594,2,1,"CMat",7,3,6,2,8,1,4,5
"358",2,6,22,2,1,2,0,0,2,1,1,442,376,0,"CMat",374,375,NA,NA,NA,NA,NA,NA
"359",2,6,23,1,1,4,3,2,1,1,1,706,4,1,"CMat",10,13,12,11,NA,NA,NA,NA
"360",2,6,24,2,1,8,0,0,2,1,1,593,385,0,"CMat",377,378,379,380,381,382,383,384
"361",2,7,1,2,1,4,0,0,1,1,0,686,9,1,"CMat",6,2,1,4,NA,NA,NA,NA
"362",2,7,2,1,1,8,1,8,1,1,1,480,386,0,"CMat",386,387,388,389,390,391,392,393
"363",2,7,3,1,1,8,8,1,2,1,0,368,1,1,"CMat",6,5,2,3,7,8,4,1
"364",2,7,4,1,1,8,5,4,1,0,0,623,398,0,"CMat",394,395,396,397,398,399,400,401
"365",2,7,5,1,1,8,4,5,2,1,0,666,8,1,"CMat",6,5,4,8,7,2,1,3
"366",2,7,6,2,1,4,0,0,2,1,1,467,406,0,"CMat",402,403,404,405,NA,NA,NA,NA
"367",2,7,7,1,1,2,1,2,1,1,1,485,5,1,"CMat",13,10,NA,NA,NA,NA,NA,NA
"368",2,7,8,2,1,8,0,0,1,1,0,1070,415,0,"CMat",407,408,409,410,411,412,413,414
"369",2,7,9,1,1,8,7,2,1,1,1,647,3,1,"CMat",13,10,9,14,15,16,11,12
"370",2,7,10,1,1,8,2,7,1,1,1,618,417,0,"CMat",416,417,418,419,420,421,422,423
"371",2,7,11,2,1,8,0,0,2,1,1,596,15,1,"CMat",12,16,10,9,14,11,13,15
"372",2,7,12,2,1,2,0,0,2,1,1,414,426,0,"CMat",424,425,NA,NA,NA,NA,NA,NA
"373",2,7,13,1,1,4,2,3,1,1,1,630,2,1,"CMat",9,10,16,15,NA,NA,NA,NA
"374",2,7,14,1,1,8,4,5,1,1,1,794,430,0,"CMat",427,428,429,430,431,432,433,434
"375",2,7,15,2,1,4,0,0,2,1,1,643,14,1,"CMat",16,12,10,9,NA,NA,NA,NA
"376",2,7,16,1,1,8,6,3,2,1,0,536,440,0,"CMat",435,436,437,438,439,440,441,442
"377",2,7,17,2,1,2,0,0,1,1,0,438,14,1,"CMat",5,2,NA,NA,NA,NA,NA,NA
"378",2,7,18,2,1,4,0,0,1,1,0,490,447,0,"CMat",443,444,445,446,NA,NA,NA,NA
"379",2,7,19,1,1,2,2,1,1,1,1,427,1,1,"CMat",14,9,NA,NA,NA,NA,NA,NA
"380",2,7,20,1,1,8,1,8,2,1,0,567,448,0,"CMat",448,449,450,451,452,453,454,455
"381",2,7,21,1,1,8,1,8,1,1,1,723,1,1,"CMat",9,16,11,15,13,12,10,14
"382",2,7,22,1,1,8,3,6,1,1,1,596,458,0,"CMat",456,457,458,459,460,461,462,463
"383",2,7,23,1,1,2,1,2,1,1,1,400,5,1,"CMat",13,11,NA,NA,NA,NA,NA,NA
"384",2,7,24,2,1,4,0,0,1,1,0,533,468,0,"CMat",464,465,466,467,NA,NA,NA,NA
"385",2,8,1,2,1,2,0,0,2,1,1,2656,11,1,"CMat",10,16,NA,NA,NA,NA,NA,NA
"386",2,8,2,1,1,4,1,4,1,1,1,666,469,0,"CMat",469,470,471,472,NA,NA,NA,NA
"387",2,8,3,2,1,8,0,0,2,1,1,675,14,1,"CMat",9,16,12,15,14,10,13,11
"388",2,8,4,2,1,8,0,0,1,0,1,630,481,0,"CMat",473,474,475,476,477,478,479,480
"389",2,8,5,1,1,4,3,2,2,1,0,437,6,1,"CMat",7,2,6,3,NA,NA,NA,NA
"390",2,8,6,1,1,8,1,8,2,1,0,769,482,0,"CMat",482,483,484,485,486,487,488,489
"391",2,8,7,1,1,2,2,1,2,1,0,422,2,1,"CMat",1,2,NA,NA,NA,NA,NA,NA
"392",2,8,8,1,1,4,1,4,2,1,0,603,490,0,"CMat",490,491,492,493,NA,NA,NA,NA
"393",2,8,9,2,1,8,0,0,1,1,0,710,9,1,"CMat",4,6,3,2,8,7,1,5
"394",2,8,10,1,1,4,3,2,2,1,0,558,496,0,"CMat",494,495,496,497,NA,NA,NA,NA
"395",2,8,11,2,1,4,0,0,2,1,1,642,13,1,"CMat",14,16,9,15,NA,NA,NA,NA
"396",2,8,12,1,1,4,3,2,1,1,1,527,500,0,"CMat",498,499,500,501,NA,NA,NA,NA
"397",2,8,13,2,1,2,0,0,1,1,0,557,12,1,"CMat",3,1,NA,NA,NA,NA,NA,NA
"398",2,8,14,2,1,2,0,0,1,1,0,424,504,0,"CMat",502,503,NA,NA,NA,NA,NA,NA
"399",2,8,15,2,1,8,0,0,2,1,1,700,12,1,"CMat",16,9,15,14,11,12,13,10
"400",2,8,16,2,1,2,0,0,1,1,0,369,507,0,"CMat",505,506,NA,NA,NA,NA,NA,NA
"401",2,8,17,1,1,4,1,4,2,1,0,586,2,1,"CMat",2,4,6,3,NA,NA,NA,NA
"402",2,8,18,1,1,2,1,2,1,1,1,662,508,0,"CMat",508,509,NA,NA,NA,NA,NA,NA
"403",2,8,19,1,1,4,3,2,1,1,1,676,7,1,"CMat",13,9,15,10,NA,NA,NA,NA
"404",2,8,20,1,1,4,3,2,1,1,1,463,512,0,"CMat",510,511,512,513,NA,NA,NA,NA
"405",2,8,21,1,1,2,1,2,1,1,1,400,3,1,"CMat",11,14,NA,NA,NA,NA,NA,NA
"406",2,8,22,2,1,2,0,0,1,1,0,416,516,0,"CMat",514,515,NA,NA,NA,NA,NA,NA
"407",2,8,23,1,1,2,1,2,2,1,0,499,3,1,"CMat",3,6,NA,NA,NA,NA,NA,NA
"408",2,8,24,1,1,8,7,2,2,1,0,508,523,0,"CMat",517,518,519,520,521,522,523,524
"409",2,9,1,1,1,4,2,3,2,1,0,620,6,1,"CMat",1,6,5,8,NA,NA,NA,NA
"410",2,9,2,1,1,8,2,7,2,1,0,544,526,0,"CMat",525,526,527,528,529,530,531,532
"411",2,9,3,1,1,4,3,2,2,1,0,499,2,1,"CMat",8,5,2,7,NA,NA,NA,NA
"412",2,9,4,2,1,2,0,0,1,1,0,544,535,0,"CMat",533,534,NA,NA,NA,NA,NA,NA
"413",2,9,5,1,1,8,3,6,2,1,0,958,5,1,"CMat",6,3,5,1,8,2,7,4
"414",2,9,6,2,1,2,0,0,1,1,0,538,538,0,"CMat",536,537,NA,NA,NA,NA,NA,NA
"415",2,9,7,1,1,2,1,2,2,1,0,424,3,1,"CMat",3,1,NA,NA,NA,NA,NA,NA
"416",2,9,8,1,1,8,7,2,1,1,1,485,545,0,"CMat",539,540,541,542,543,544,545,546
"417",2,9,9,1,1,4,1,4,2,1,0,523,2,1,"CMat",2,5,1,6,NA,NA,NA,NA
"418",2,9,10,1,1,8,8,1,2,1,0,386,554,0,"CMat",547,548,549,550,551,552,553,554
"419",2,9,11,1,1,2,1,2,1,1,1,421,5,1,"CMat",13,10,NA,NA,NA,NA,NA,NA
"420",2,9,12,2,1,8,0,0,1,1,0,542,563,0,"CMat",555,556,557,558,559,560,561,562
"421",2,9,13,1,1,4,3,2,2,1,0,817,5,1,"CMat",2,1,5,4,NA,NA,NA,NA
"422",2,9,14,2,1,2,0,0,1,1,0,483,566,0,"CMat",564,565,NA,NA,NA,NA,NA,NA
"423",2,9,15,2,1,4,0,0,2,1,1,488,16,1,"CMat",11,13,9,15,NA,NA,NA,NA
"424",2,9,16,2,1,4,0,0,1,1,0,458,571,0,"CMat",567,568,569,570,NA,NA,NA,NA
"425",2,9,17,2,1,4,0,0,2,1,1,673,16,1,"CMat",12,9,15,16,NA,NA,NA,NA
"426",2,9,18,1,1,2,1,2,1,1,1,552,572,0,"CMat",572,573,NA,NA,NA,NA,NA,NA
"427",2,9,19,1,1,2,2,1,1,1,1,422,6,1,"CMat",15,14,NA,NA,NA,NA,NA,NA
"428",2,9,20,2,1,2,0,0,1,1,0,456,576,0,"CMat",574,575,NA,NA,NA,NA,NA,NA
"429",2,9,21,1,1,2,1,2,2,1,0,426,8,1,"CMat",8,5,NA,NA,NA,NA,NA,NA
"430",2,9,22,2,1,4,0,0,1,1,0,526,581,0,"CMat",577,578,579,580,NA,NA,NA,NA
"431",2,9,23,2,1,4,0,0,2,1,1,434,15,1,"CMat",14,9,11,10,NA,NA,NA,NA
"432",2,9,24,2,1,4,0,0,2,1,1,484,586,0,"CMat",582,583,584,585,NA,NA,NA,NA
"433",3,1,1,2,1,8,0,0,2,0,0,2297,15,1,"CMat",8,5,2,6,7,3,1,4
"434",3,1,3,1,1,2,1,2,2,1,0,2876,21,0,"CMat",21,22,NA,NA,NA,NA,NA,NA
"435",3,1,4,2,1,4,0,0,1,1,0,1267,9,1,"CMat",7,8,1,2,NA,NA,NA,NA
"436",3,1,5,1,1,2,1,2,1,1,1,1331,23,0,"CMat",23,24,NA,NA,NA,NA,NA,NA
"437",3,1,6,2,1,8,0,0,1,1,0,1122,11,1,"CMat",4,7,8,1,6,2,3,5
"438",3,1,7,1,1,8,8,1,2,1,0,1073,32,0,"CMat",25,26,27,28,29,30,31,32
"439",3,1,8,1,1,8,5,4,2,1,0,875,1,1,"CMat",5,7,8,3,1,2,6,4
"440",3,1,9,1,1,8,3,6,1,1,1,1141,35,0,"CMat",33,34,35,36,37,38,39,40
"441",3,1,10,2,1,4,0,0,1,1,0,961,9,1,"CMat",6,4,7,2,NA,NA,NA,NA
"442",3,1,11,2,1,8,0,0,1,0,1,1160,49,0,"CMat",41,42,43,44,45,46,47,48
"443",3,1,12,1,1,4,4,1,1,1,1,1664,8,1,"CMat",12,15,14,16,NA,NA,NA,NA
"444",3,1,13,2,1,2,0,0,2,0,0,3728,52,0,"CMat",50,51,NA,NA,NA,NA,NA,NA
"445",3,1,14,1,1,4,4,1,1,1,1,469,8,1,"CMat",9,15,11,16,NA,NA,NA,NA
"446",3,1,15,2,1,2,0,0,2,1,1,788,55,0,"CMat",53,54,NA,NA,NA,NA,NA,NA
"447",3,1,16,1,1,4,2,3,2,1,0,654,3,1,"CMat",8,3,5,1,NA,NA,NA,NA
"448",3,1,17,2,1,4,0,0,2,0,0,1193,60,0,"CMat",56,57,58,59,NA,NA,NA,NA
"449",3,1,18,2,1,2,0,0,2,1,1,2781,10,1,"CMat",10,16,NA,NA,NA,NA,NA,NA
"450",3,1,19,1,1,2,1,2,2,1,0,641,61,0,"CMat",61,62,NA,NA,NA,NA,NA,NA
"451",3,1,20,1,1,2,2,1,1,1,1,540,8,1,"CMat",11,16,NA,NA,NA,NA,NA,NA
"452",3,1,21,2,1,2,0,0,1,0,1,4231,65,0,"CMat",63,64,NA,NA,NA,NA,NA,NA
"453",3,1,22,1,1,8,2,7,1,1,1,465,5,1,"CMat",12,13,11,10,14,9,15,16
"454",3,1,23,2,1,2,0,0,2,0,0,3121,68,0,"CMat",66,67,NA,NA,NA,NA,NA,NA
"455",3,1,24,2,1,2,0,0,2,0,0,3753,9,1,"CMat",1,2,NA,NA,NA,NA,NA,NA
"456",3,2,1,1,1,4,2,3,2,1,0,1228,6,1,"CMat",1,6,3,5,NA,NA,NA,NA
"457",3,2,2,2,1,8,0,0,1,0,1,1336,77,0,"CMat",69,70,71,72,73,74,75,76
"458",3,2,3,1,1,8,1,8,1,1,1,1175,1,1,"CMat",9,13,16,15,12,11,14,10
"459",3,2,4,1,1,8,8,1,1,1,1,615,85,0,"CMat",78,79,80,81,82,83,84,85
"460",3,2,5,2,1,4,0,0,1,1,0,888,12,1,"CMat",2,1,8,4,NA,NA,NA,NA
"461",3,2,6,1,1,8,2,7,1,0,0,932,87,0,"CMat",86,87,88,89,90,91,92,93
"462",3,2,7,1,1,2,1,2,1,1,1,1331,5,1,"CMat",13,12,NA,NA,NA,NA,NA,NA
"463",3,2,8,2,1,8,0,0,2,0,0,1594,102,0,"CMat",94,95,96,97,98,99,100,101
"464",3,2,9,1,1,4,2,3,2,1,0,7924,5,1,"CMat",4,5,8,3,NA,NA,NA,NA
"465",3,2,10,2,1,8,0,0,2,0,0,2259,111,0,"CMat",103,104,105,106,107,108,109,110
"466",3,2,11,2,1,8,0,0,2,1,1,813,9,1,"CMat",11,15,16,9,10,14,13,12
"467",3,2,12,1,1,4,1,4,1,1,1,1059,112,0,"CMat",112,113,114,115,NA,NA,NA,NA
"468",3,2,13,2,1,4,0,0,2,1,1,802,11,1,"CMat",9,11,15,14,NA,NA,NA,NA
"469",3,2,14,2,1,4,0,0,1,1,0,1062,120,0,"CMat",116,117,118,119,NA,NA,NA,NA
"470",3,2,15,2,1,4,0,0,1,1,0,1125,11,1,"CMat",3,8,5,1,NA,NA,NA,NA
"471",3,2,16,1,1,2,1,2,1,1,1,1402,121,0,"CMat",121,122,NA,NA,NA,NA,NA,NA
"472",3,2,17,2,1,8,0,0,1,1,0,822,15,1,"CMat",1,8,4,5,7,3,2,6
"473",3,2,18,2,1,4,0,0,1,0,1,1469,127,0,"CMat",123,124,125,126,NA,NA,NA,NA
"474",3,2,19,2,1,4,0,0,1,1,0,763,13,1,"CMat",2,3,8,4,NA,NA,NA,NA
"475",3,2,20,1,1,2,2,1,2,1,0,4320,129,0,"CMat",128,129,NA,NA,NA,NA,NA,NA
"476",3,2,21,2,1,2,0,0,1,1,0,2039,13,1,"CMat",6,5,NA,NA,NA,NA,NA,NA
"477",3,2,22,1,1,4,3,2,1,1,1,589,132,0,"CMat",130,131,132,133,NA,NA,NA,NA
"478",3,2,23,1,1,8,7,2,2,1,0,906,7,1,"CMat",1,4,3,8,6,5,7,2
"479",3,2,24,2,1,4,0,0,1,0,1,989,138,0,"CMat",134,135,136,137,NA,NA,NA,NA
"480",3,3,1,2,1,8,0,0,1,1,0,918,16,1,"CMat",4,3,8,7,6,2,1,5
"481",3,3,2,2,1,8,0,0,1,0,1,3567,147,0,"CMat",139,140,141,142,143,144,145,146
"482",3,3,3,1,1,4,4,1,1,1,1,3194,4,1,"CMat",11,14,13,12,NA,NA,NA,NA
"483",3,3,4,1,1,4,4,1,2,1,0,655,151,0,"CMat",148,149,150,151,NA,NA,NA,NA
"484",3,3,5,2,1,2,0,0,2,1,1,682,12,1,"CMat",15,12,NA,NA,NA,NA,NA,NA
"485",3,3,6,1,1,8,5,4,2,0,1,3082,156,0,"CMat",152,153,154,155,156,157,158,159
"486",3,3,7,2,1,4,0,0,2,1,1,952,13,1,"CMat",14,15,11,13,NA,NA,NA,NA
"487",3,3,8,1,1,8,1,8,1,0,0,1472,160,0,"CMat",160,161,162,163,164,165,166,167
"488",3,3,9,2,1,8,0,0,1,1,0,969,11,1,"CMat",7,8,4,6,2,3,1,5
"489",3,3,10,1,1,8,7,2,2,1,0,879,174,0,"CMat",168,169,170,171,172,173,174,175
"490",3,3,11,1,1,4,4,1,2,1,0,742,7,1,"CMat",3,5,6,7,NA,NA,NA,NA
"491",3,3,12,2,1,2,0,0,2,0,0,2329,178,0,"CMat",176,177,NA,NA,NA,NA,NA,NA
"492",3,3,13,2,1,2,0,0,2,1,1,1281,12,1,"CMat",12,10,NA,NA,NA,NA,NA,NA
"493",3,3,14,1,1,2,1,2,1,1,1,1138,179,0,"CMat",179,180,NA,NA,NA,NA,NA,NA
"494",3,3,15,2,1,8,0,0,2,1,1,841,9,1,"CMat",12,13,14,9,16,10,11,15
"495",3,3,16,1,1,4,2,3,2,1,0,1038,182,0,"CMat",181,182,183,184,NA,NA,NA,NA
"496",3,3,17,2,1,2,0,0,2,1,1,681,9,1,"CMat",14,11,NA,NA,NA,NA,NA,NA
"497",3,3,18,1,1,8,3,6,2,1,0,1262,187,0,"CMat",185,186,187,188,189,190,191,192
"498",3,3,19,1,1,2,2,1,2,1,0,912,7,1,"CMat",8,7,NA,NA,NA,NA,NA,NA
"499",3,3,20,1,1,4,2,3,1,1,1,1251,194,0,"CMat",193,194,195,196,NA,NA,NA,NA
"500",3,3,21,1,1,2,1,2,2,1,0,821,4,1,"CMat",4,2,NA,NA,NA,NA,NA,NA
"501",3,3,22,1,1,4,1,4,1,1,1,1066,197,0,"CMat",197,198,199,200,NA,NA,NA,NA
"502",3,3,23,1,1,8,8,1,1,1,1,483,4,1,"CMat",10,15,11,14,9,13,16,12
"503",3,3,24,1,1,4,2,3,1,1,1,3331,202,0,"CMat",201,202,203,204,NA,NA,NA,NA
"504",3,4,1,2,1,4,0,0,1,1,0,1236,9,1,"CMat",2,1,6,7,NA,NA,NA,NA
"505",3,4,2,1,1,2,1,2,2,1,0,918,205,0,"CMat",205,206,NA,NA,NA,NA,NA,NA
"506",3,4,3,1,1,8,1,8,1,1,1,549,6,1,"CMat",14,15,13,11,9,16,10,12
"507",3,4,4,1,1,2,1,2,2,1,0,1121,207,0,"CMat",207,208,NA,NA,NA,NA,NA,NA
"508",3,4,5,1,1,8,8,1,1,1,1,488,7,1,"CMat",9,12,16,11,14,10,13,15
"509",3,4,6,2,1,4,0,0,1,0,1,1341,213,0,"CMat",209,210,211,212,NA,NA,NA,NA
"510",3,4,7,1,1,2,2,1,1,1,1,892,2,1,"CMat",14,10,NA,NA,NA,NA,NA,NA
"511",3,4,8,1,1,8,3,6,2,1,0,788,216,0,"CMat",214,215,216,217,218,219,220,221
"512",3,4,9,1,1,8,1,8,2,1,0,744,3,1,"CMat",3,1,5,6,8,7,4,2
"513",3,4,10,2,1,8,0,0,1,0,1,2761,230,0,"CMat",222,223,224,225,226,227,228,229
"514",3,4,11,1,1,4,4,1,2,1,0,1301,7,1,"CMat",1,8,2,7,NA,NA,NA,NA
"515",3,4,12,1,1,8,2,7,2,1,0,3005,232,0,"CMat",231,232,233,234,235,236,237,238
"516",3,4,13,2,1,2,0,0,1,1,0,1417,9,1,"CMat",3,6,NA,NA,NA,NA,NA,NA
"517",3,4,14,1,1,2,1,2,1,1,1,1955,239,0,"CMat",239,240,NA,NA,NA,NA,NA,NA
"518",3,4,15,2,1,4,0,0,1,1,0,687,10,1,"CMat",6,2,1,5,NA,NA,NA,NA
"519",3,4,16,2,1,2,0,0,1,0,1,5142,243,0,"CMat",241,242,NA,NA,NA,NA,NA,NA
"520",3,4,17,1,1,4,1,4,1,1,1,739,3,1,"CMat",11,9,10,16,NA,NA,NA,NA
"521",3,4,18,2,1,4,0,0,1,0,1,1899,248,0,"CMat",244,245,246,247,NA,NA,NA,NA
"522",3,4,19,2,1,2,0,0,2,1,1,1667,9,1,"CMat",11,9,NA,NA,NA,NA,NA,NA
"523",3,4,20,2,1,8,0,0,1,0,1,4667,257,0,"CMat",249,250,251,252,253,254,255,256
"524",3,4,21,1,1,2,1,2,1,1,1,2468,6,1,"CMat",14,10,NA,NA,NA,NA,NA,NA
"525",3,4,22,1,1,2,1,2,2,1,0,6243,258,0,"CMat",258,259,NA,NA,NA,NA,NA,NA
"526",3,4,23,1,1,2,2,1,2,1,0,702,8,1,"CMat",1,8,NA,NA,NA,NA,NA,NA
"527",3,4,24,2,1,2,0,0,2,0,0,1587,262,0,"CMat",260,261,NA,NA,NA,NA,NA,NA
"528",3,5,1,2,1,8,0,0,1,1,0,646,10,1,"CMat",6,8,2,7,5,4,1,3
"529",3,5,2,2,1,2,0,0,1,1,0,2238,265,0,"CMat",263,264,NA,NA,NA,NA,NA,NA
"530",3,5,3,2,1,4,0,0,2,1,1,718,16,1,"CMat",15,13,11,10,NA,NA,NA,NA
"531",3,5,4,2,1,2,0,0,1,1,0,2578,268,0,"CMat",266,267,NA,NA,NA,NA,NA,NA
"532",3,5,5,1,1,8,6,3,1,1,1,784,1,1,"CMat",10,12,15,14,11,9,13,16
"533",3,5,6,1,1,8,7,2,1,1,1,780,275,0,"CMat",269,270,271,272,273,274,275,276
"534",3,5,7,2,1,8,0,0,1,1,0,2594,9,1,"CMat",4,7,1,5,8,2,6,3
"535",3,5,8,2,1,2,0,0,1,0,1,3163,279,0,"CMat",277,278,NA,NA,NA,NA,NA,NA
"536",3,5,9,2,1,2,0,0,2,1,1,721,9,1,"CMat",12,16,NA,NA,NA,NA,NA,NA
"537",3,5,10,2,1,2,0,0,1,1,0,1016,282,0,"CMat",280,281,NA,NA,NA,NA,NA,NA
"538",3,5,11,2,1,8,0,0,2,1,1,2675,16,1,"CMat",13,15,16,11,14,9,10,12
"539",3,5,12,2,1,2,0,0,1,1,0,2075,285,0,"CMat",283,284,NA,NA,NA,NA,NA,NA
"540",3,5,13,2,1,2,0,0,1,1,0,749,15,1,"CMat",1,6,NA,NA,NA,NA,NA,NA
"541",3,5,14,1,1,4,1,4,2,1,0,1349,286,0,"CMat",286,287,288,289,NA,NA,NA,NA
"542",3,5,15,2,1,8,0,0,1,1,0,643,16,1,"CMat",8,4,5,6,2,3,1,7
"543",3,5,16,1,1,8,6,3,2,1,0,936,295,0,"CMat",290,291,292,293,294,295,296,297
"544",3,5,17,2,1,2,0,0,1,1,0,711,9,1,"CMat",3,6,NA,NA,NA,NA,NA,NA
"545",3,5,18,2,1,4,0,0,1,0,1,3823,302,0,"CMat",298,299,300,301,NA,NA,NA,NA
"546",3,5,19,1,1,2,1,2,1,1,1,7002,7,1,"CMat",15,13,NA,NA,NA,NA,NA,NA
"547",3,5,20,1,1,8,5,4,1,1,1,7087,307,0,"CMat",303,304,305,306,307,308,309,310
"548",3,5,21,2,1,8,0,0,2,1,1,1801,11,1,"CMat",16,11,9,14,15,12,10,13
"549",3,5,22,2,1,2,0,0,1,0,1,5171,313,0,"CMat",311,312,NA,NA,NA,NA,NA,NA
"550",3,5,23,1,1,4,3,2,1,1,1,1118,1,1,"CMat",10,15,9,11,NA,NA,NA,NA
"551",3,5,24,1,1,2,2,1,2,1,0,612,315,0,"CMat",314,315,NA,NA,NA,NA,NA,NA
"552",3,6,1,1,1,4,1,4,2,1,0,468,7,1,"CMat",7,3,2,4,NA,NA,NA,NA
"553",3,6,2,2,1,8,0,0,1,0,1,898,324,0,"CMat",316,317,318,319,320,321,322,323
"554",3,6,3,1,1,2,2,1,2,1,0,434,4,1,"CMat",8,4,NA,NA,NA,NA,NA,NA
"555",3,6,4,1,1,8,6,3,1,1,1,699,330,0,"CMat",325,326,327,328,329,330,331,332
"556",3,6,5,2,1,4,0,0,2,1,1,1161,15,1,"CMat",10,11,14,9,NA,NA,NA,NA
"557",3,6,6,2,1,2,0,0,2,0,0,2490,335,0,"CMat",333,334,NA,NA,NA,NA,NA,NA
"558",3,6,7,2,1,4,0,0,1,1,0,3872,14,1,"CMat",7,1,8,2,NA,NA,NA,NA
"559",3,6,8,2,1,8,0,0,2,0,0,3923,344,0,"CMat",336,337,338,339,340,341,342,343
"560",3,6,9,1,1,4,1,4,2,1,0,5056,1,1,"CMat",1,6,5,7,NA,NA,NA,NA
"561",3,6,10,2,1,8,0,0,2,0,0,1102,353,0,"CMat",345,346,347,348,349,350,351,352
"562",3,6,11,1,1,8,6,3,1,1,1,454,7,1,"CMat",9,16,12,14,13,15,10,11
"563",3,6,12,2,1,8,0,0,2,0,0,7907,362,0,"CMat",354,355,356,357,358,359,360,361
"564",3,6,13,1,1,2,1,2,2,0,1,1404,1,1,"CMat",9,13,NA,NA,NA,NA,NA,NA
"565",3,6,15,2,1,2,0,0,2,0,0,13955,370,0,"CMat",368,369,NA,NA,NA,NA,NA,NA
"566",3,6,16,1,1,8,4,5,2,1,0,1178,6,1,"CMat",5,2,7,6,4,1,8,3
"567",3,6,17,1,1,4,2,3,2,1,0,611,372,0,"CMat",371,372,373,374,NA,NA,NA,NA
"568",3,6,18,1,1,4,2,3,1,1,1,501,6,1,"CMat",15,14,10,11,NA,NA,NA,NA
"569",3,6,19,2,1,2,0,0,1,0,1,2819,377,0,"CMat",375,376,NA,NA,NA,NA,NA,NA
"570",3,6,20,2,1,4,0,0,1,1,0,1372,13,1,"CMat",4,5,1,6,NA,NA,NA,NA
"571",3,6,21,1,1,8,6,3,2,1,0,886,383,0,"CMat",378,379,380,381,382,383,384,385
"572",3,6,22,2,1,4,0,0,1,0,1,2092,16,1,"CMat",16,15,9,10,NA,NA,NA,NA
"573",3,6,23,2,1,4,0,0,2,1,1,1856,390,0,"CMat",386,387,388,389,NA,NA,NA,NA
"574",3,6,24,1,1,8,7,2,2,1,0,5610,7,1,"CMat",6,2,1,3,8,5,7,4
"575",3,7,1,2,1,8,0,0,2,1,1,590,10,1,"CMat",14,15,12,10,13,16,11,9
"576",3,7,2,1,1,8,5,4,1,1,1,872,395,0,"CMat",391,392,393,394,395,396,397,398
"577",3,7,3,2,1,4,0,0,1,0,1,2607,13,1,"CMat",12,16,9,14,NA,NA,NA,NA
"578",3,7,4,2,1,2,0,0,1,0,1,1547,401,0,"CMat",399,400,NA,NA,NA,NA,NA,NA
"579",3,7,5,2,1,2,0,0,1,0,1,353,16,1,"CMat",12,16,NA,NA,NA,NA,NA,NA
"580",3,7,6,1,1,2,1,2,2,0,1,790,402,0,"CMat",402,403,NA,NA,NA,NA,NA,NA
"581",3,7,7,2,1,8,0,0,1,1,0,3115,11,1,"CMat",2,6,7,4,1,3,5,8
"582",3,7,8,1,1,8,8,1,1,1,1,1614,411,0,"CMat",404,405,406,407,408,409,410,411
"583",3,7,9,2,1,2,0,0,2,1,1,818,13,1,"CMat",16,14,NA,NA,NA,NA,NA,NA
"584",3,7,10,2,1,2,0,0,2,0,0,3188,414,0,"CMat",412,413,NA,NA,NA,NA,NA,NA
"585",3,7,11,1,1,2,1,2,2,1,0,2233,2,1,"CMat",2,3,NA,NA,NA,NA,NA,NA
"586",3,7,12,2,1,2,0,0,1,0,1,2816,417,0,"CMat",415,416,NA,NA,NA,NA,NA,NA
"587",3,7,13,2,1,8,0,0,1,1,0,1268,15,1,"CMat",7,8,2,5,4,1,3,6
"588",3,7,14,1,1,4,4,1,1,1,1,4217,421,0,"CMat",418,419,420,421,NA,NA,NA,NA
"589",3,7,15,1,1,4,3,2,2,1,0,794,4,1,"CMat",8,2,4,7,NA,NA,NA,NA
"590",3,7,16,2,1,2,0,0,2,0,0,4587,424,0,"CMat",422,423,NA,NA,NA,NA,NA,NA
"591",3,7,17,2,1,4,0,0,1,1,0,3150,15,1,"CMat",6,5,3,4,NA,NA,NA,NA
"592",3,7,18,2,1,4,0,0,2,0,0,3815,429,0,"CMat",425,426,427,428,NA,NA,NA,NA
"593",3,7,19,1,1,8,5,4,1,0,0,5171,6,1,"CMat",8,2,7,5,6,1,3,4
"594",3,7,20,2,1,2,0,0,2,1,1,1671,432,0,"CMat",430,431,NA,NA,NA,NA,NA,NA
"595",3,7,21,1,1,4,2,3,2,1,0,2222,4,1,"CMat",5,4,3,7,NA,NA,NA,NA
"596",3,7,22,1,1,2,1,2,1,0,0,4938,433,0,"CMat",433,434,NA,NA,NA,NA,NA,NA
"597",3,7,23,1,1,8,7,2,1,0,0,2953,8,1,"CMat",1,3,2,6,7,4,8,5
"598",3,7,24,1,1,4,4,1,1,1,1,2601,438,0,"CMat",435,436,437,438,NA,NA,NA,NA
"599",3,8,1,1,1,4,1,4,1,1,1,940,8,1,"CMat",16,14,10,15,NA,NA,NA,NA
"600",3,8,2,2,1,8,0,0,1,0,1,1190,447,0,"CMat",439,440,441,442,443,444,445,446
"601",3,8,3,2,1,8,0,0,1,0,1,411,11,1,"CMat",15,9,11,13,16,10,12,14
"602",3,8,4,1,1,4,4,1,1,1,1,2002,451,0,"CMat",448,449,450,451,NA,NA,NA,NA
"603",3,8,5,2,1,8,0,0,1,1,0,614,9,1,"CMat",2,6,7,3,4,8,1,5
"604",3,8,6,2,1,8,0,0,1,1,0,1852,460,0,"CMat",452,453,454,455,456,457,458,459
"605",3,8,7,1,1,8,8,1,2,1,0,406,6,1,"CMat",3,8,2,1,5,7,4,6
"606",3,8,8,2,1,2,0,0,1,0,1,9081,463,0,"CMat",461,462,NA,NA,NA,NA,NA,NA
"607",3,8,9,2,1,2,0,0,2,1,1,2834,16,1,"CMat",13,11,NA,NA,NA,NA,NA,NA
"608",3,8,10,1,1,2,1,2,1,1,1,2179,464,0,"CMat",464,465,NA,NA,NA,NA,NA,NA
"609",3,8,11,1,1,4,3,2,2,1,0,582,3,1,"CMat",8,4,3,7,NA,NA,NA,NA
"610",3,8,12,2,1,8,0,0,1,0,1,1373,474,0,"CMat",466,467,468,469,470,471,472,473
"611",3,8,13,1,1,8,1,8,1,1,1,2027,7,1,"CMat",15,12,9,11,16,13,10,14
"612",3,8,14,2,1,4,0,0,1,1,0,3104,479,0,"CMat",475,476,477,478,NA,NA,NA,NA
"613",3,8,15,1,1,2,2,1,1,1,1,1032,4,1,"CMat",13,12,NA,NA,NA,NA,NA,NA
"614",3,8,16,2,1,2,0,0,1,1,0,784,482,0,"CMat",480,481,NA,NA,NA,NA,NA,NA
"615",3,8,17,1,1,8,2,7,1,1,1,533,8,1,"CMat",14,16,12,10,9,15,13,11
"616",3,8,18,2,1,8,0,0,1,0,1,704,491,0,"CMat",483,484,485,486,487,488,489,490
"617",3,8,19,1,1,8,4,5,1,1,1,520,5,1,"CMat",16,10,15,13,9,11,14,12
"618",3,8,20,2,1,8,0,0,2,0,0,515,500,0,"CMat",492,493,494,495,496,497,498,499
"619",3,8,21,1,1,4,2,3,2,1,0,6040,5,1,"CMat",4,5,3,7,NA,NA,NA,NA
"620",3,8,22,1,1,8,8,1,2,1,0,405,508,0,"CMat",501,502,503,504,505,506,507,508
"621",3,8,23,1,1,2,2,1,1,1,1,297,4,1,"CMat",13,12,NA,NA,NA,NA,NA,NA
"622",3,8,24,1,1,2,1,2,2,1,0,7152,509,0,"CMat",509,510,NA,NA,NA,NA,NA,NA
"623",3,9,1,2,1,2,0,0,1,1,0,912,13,1,"CMat",1,4,NA,NA,NA,NA,NA,NA
"624",3,9,2,1,1,4,3,2,2,1,0,548,513,0,"CMat",511,512,513,514,NA,NA,NA,NA
"625",3,9,3,2,1,2,0,0,1,1,0,642,16,1,"CMat",8,7,NA,NA,NA,NA,NA,NA
"626",3,9,4,1,1,4,4,1,2,1,0,498,518,0,"CMat",515,516,517,518,NA,NA,NA,NA
"627",3,9,5,2,1,8,0,0,1,1,0,722,10,1,"CMat",3,2,4,1,8,7,5,6
"628",3,9,6,2,1,8,0,0,1,0,1,1317,527,0,"CMat",519,520,521,522,523,524,525,526
"629",3,9,7,1,1,2,2,1,1,1,1,1684,1,1,"CMat",15,9,NA,NA,NA,NA,NA,NA
"630",3,9,8,1,1,4,3,2,1,1,1,1959,530,0,"CMat",528,529,530,531,NA,NA,NA,NA
"631",3,9,9,1,1,2,1,2,2,1,0,1133,4,1,"CMat",4,8,NA,NA,NA,NA,NA,NA
"632",3,9,10,1,1,8,6,3,2,1,0,1136,537,0,"CMat",532,533,534,535,536,537,538,539
"633",3,9,11,1,1,4,3,2,2,1,0,684,4,1,"CMat",7,6,4,3,NA,NA,NA,NA
"634",3,9,12,1,1,4,4,1,1,1,1,280,543,0,"CMat",540,541,542,543,NA,NA,NA,NA
"635",3,9,13,2,1,2,0,0,2,1,1,626,11,1,"CMat",9,14,NA,NA,NA,NA,NA,NA
"636",3,9,14,2,1,8,0,0,1,0,1,966,552,0,"CMat",544,545,546,547,548,549,550,551
"637",3,9,15,2,1,8,0,0,2,1,1,723,11,1,"CMat",13,15,16,9,10,11,14,12
"638",3,9,16,2,1,8,0,0,1,0,1,2215,561,0,"CMat",553,554,555,556,557,558,559,560
"639",3,9,17,2,1,4,0,0,2,1,1,1048,16,1,"CMat",11,10,9,14,NA,NA,NA,NA
"640",3,9,18,1,1,8,3,6,2,1,0,669,564,0,"CMat",562,563,564,565,566,567,568,569
"641",3,9,19,2,1,8,0,0,1,0,1,551,16,1,"CMat",16,15,11,10,14,12,9,13
"642",3,9,20,2,1,8,0,0,2,1,1,1998,578,0,"CMat",570,571,572,573,574,575,576,577
"643",3,9,21,2,1,2,0,0,1,1,0,2866,11,1,"CMat",6,5,NA,NA,NA,NA,NA,NA
"644",3,9,22,1,1,8,4,5,2,1,0,768,582,0,"CMat",579,580,581,582,583,584,585,586
"645",3,9,23,2,1,2,0,0,1,0,1,3014,13,1,"CMat",9,12,NA,NA,NA,NA,NA,NA
"646",3,9,24,1,1,8,2,7,1,1,1,4254,588,0,"CMat",587,588,589,590,591,592,593,594
"647",1,1,1,1,1,8,6,3,2,1,0,2587,8,0,"MIX",1,4,2,8,17,18,19,20
"648",1,1,2,2,1,8,0,0,2,1,1,3508,25,1,"MIX",3,6,4,7,21,22,23,24
"649",1,1,3,1,1,2,2,1,1,1,1,1387,8,0,"MIX",3,26,NA,NA,NA,NA,NA,NA
"650",1,1,4,2,1,2,0,0,1,0,1,2071,28,1,"MIX",1,27,NA,NA,NA,NA,NA,NA
"651",1,1,5,2,1,8,0,0,2,1,1,2164,15,1,"MIX",1,4,6,5,29,30,31,32
"652",1,1,6,2,1,4,0,0,2,1,1,1510,35,1,"MIX",1,2,33,34,NA,NA,NA,NA
"653",1,1,7,1,1,4,3,2,1,1,1,1090,8,0,"MIX",1,3,36,37,NA,NA,NA,NA
"654",1,1,8,1,1,2,2,1,1,1,1,1161,2,0,"MIX",8,38,NA,NA,NA,NA,NA,NA
"655",1,1,9,2,1,2,0,0,2,1,1,1454,40,1,"MIX",8,39,NA,NA,NA,NA,NA,NA
"656",1,1,10,2,1,2,0,0,1,1,0,1144,11,1,"MIX",2,41,NA,NA,NA,NA,NA,NA
"657",1,1,11,1,1,2,2,1,2,1,0,1486,8,0,"MIX",8,42,NA,NA,NA,NA,NA,NA
"658",1,1,12,2,1,4,0,0,2,0,0,2394,45,1,"MIX",1,3,43,44,NA,NA,NA,NA
"659",1,1,13,1,1,4,2,3,1,1,1,2867,4,0,"MIX",3,1,46,47,NA,NA,NA,NA
"660",1,1,14,2,1,8,0,0,2,1,1,1346,14,1,"MIX",3,6,7,4,48,49,50,51
"661",1,1,15,1,1,2,1,2,2,1,0,944,2,0,"MIX",6,52,NA,NA,NA,NA,NA,NA
"662",1,1,16,1,1,4,3,2,2,1,0,915,6,0,"MIX",6,2,53,54,NA,NA,NA,NA
"663",1,1,17,2,1,4,0,0,1,1,0,903,11,1,"MIX",1,8,55,56,NA,NA,NA,NA
"664",1,1,18,1,1,8,1,8,1,1,1,1061,7,0,"MIX",6,3,4,7,57,58,59,60
"665",1,1,19,2,1,4,0,0,1,1,0,804,9,1,"MIX",1,7,61,62,NA,NA,NA,NA
"666",1,1,20,1,1,4,4,1,1,1,1,844,2,0,"MIX",2,3,63,64,NA,NA,NA,NA
"667",1,1,21,1,1,4,3,2,2,1,0,947,8,0,"MIX",6,8,65,66,NA,NA,NA,NA
"668",1,1,22,1,1,2,2,1,2,1,0,785,4,0,"MIX",4,67,NA,NA,NA,NA,NA,NA
"669",1,1,23,1,1,8,7,2,2,1,0,820,8,0,"MIX",4,5,8,2,68,69,70,71
"670",1,1,24,1,1,2,2,1,2,1,0,775,4,0,"MIX",5,72,NA,NA,NA,NA,NA,NA
"671",1,2,1,2,1,4,0,0,2,0,0,4589,75,1,"MIX",7,6,73,74,NA,NA,NA,NA
"672",1,2,2,1,1,4,3,2,1,1,1,894,2,0,"MIX",7,1,76,77,NA,NA,NA,NA
"673",1,2,3,1,1,2,1,2,2,1,0,782,3,0,"MIX",3,78,NA,NA,NA,NA,NA,NA
"674",1,2,4,1,1,4,4,1,1,1,1,870,8,0,"MIX",3,7,79,80,NA,NA,NA,NA
"675",1,2,5,2,1,2,0,0,1,0,1,951,11,1,"MIX",4,81,NA,NA,NA,NA,NA,NA
"676",1,2,6,1,1,2,2,1,2,1,0,693,7,0,"MIX",7,82,NA,NA,NA,NA,NA,NA
"677",1,2,7,1,1,2,1,2,1,1,1,733,1,0,"MIX",1,83,NA,NA,NA,NA,NA,NA
"678",1,2,8,2,1,4,0,0,1,1,0,1801,86,1,"MIX",4,7,84,85,NA,NA,NA,NA
"679",1,2,9,2,1,2,0,0,2,1,1,3732,88,1,"MIX",7,87,NA,NA,NA,NA,NA,NA
"680",1,2,10,1,1,4,1,4,1,1,1,1607,5,0,"MIX",7,3,89,90,NA,NA,NA,NA
"681",1,2,11,1,1,4,1,4,1,1,1,784,2,0,"MIX",6,7,91,92,NA,NA,NA,NA
"682",1,2,12,2,1,8,0,0,2,0,0,1761,97,1,"MIX",8,6,7,2,93,94,95,96
"683",1,2,13,2,1,4,0,0,2,1,1,3140,14,1,"MIX",1,3,98,99,NA,NA,NA,NA
"684",1,2,14,1,1,2,2,1,2,1,0,746,8,0,"MIX",8,100,NA,NA,NA,NA,NA,NA
"685",1,2,15,1,1,2,1,2,1,1,1,641,7,0,"MIX",8,101,NA,NA,NA,NA,NA,NA
"686",1,2,16,1,1,4,1,4,1,1,1,576,6,0,"MIX",2,4,102,103,NA,NA,NA,NA
"687",1,2,17,1,1,4,2,3,2,1,0,721,4,0,"MIX",3,1,104,105,NA,NA,NA,NA
"688",1,2,18,2,1,2,0,0,2,1,1,712,9,1,"MIX",5,106,NA,NA,NA,NA,NA,NA
"689",1,2,19,2,1,8,0,0,2,1,1,4255,111,1,"MIX",1,8,6,2,107,108,109,110
"690",1,2,20,1,1,8,3,6,1,1,1,710,6,0,"MIX",8,1,7,6,112,113,114,115
"691",1,2,21,2,1,4,0,0,1,1,0,1315,9,1,"MIX",6,4,116,117,NA,NA,NA,NA
"692",1,2,22,1,1,4,2,3,1,1,1,663,6,0,"MIX",2,4,118,119,NA,NA,NA,NA
"693",1,2,23,1,1,4,1,4,1,1,1,661,1,0,"MIX",1,5,120,121,NA,NA,NA,NA
"694",1,2,24,2,1,4,0,0,1,1,0,820,15,1,"MIX",5,3,122,123,NA,NA,NA,NA
"695",1,3,1,1,1,8,3,6,2,1,0,963,1,0,"MIX",2,7,6,8,124,125,126,127
"696",1,3,2,1,1,2,1,2,2,1,0,705,1,0,"MIX",1,128,NA,NA,NA,NA,NA,NA
"697",1,3,3,1,1,8,7,2,1,1,1,679,3,0,"MIX",1,4,7,2,129,130,131,132
"698",1,3,4,1,1,2,1,2,2,1,0,720,4,0,"MIX",6,133,NA,NA,NA,NA,NA,NA
"699",1,3,5,1,1,4,3,2,2,1,0,780,4,0,"MIX",5,1,134,135,NA,NA,NA,NA
"700",1,3,6,2,1,2,0,0,2,1,1,2609,137,1,"MIX",3,136,NA,NA,NA,NA,NA,NA
"701",1,3,7,1,1,2,2,1,2,1,0,780,3,0,"MIX",1,138,NA,NA,NA,NA,NA,NA
"702",1,3,8,2,1,4,0,0,2,0,0,1958,141,1,"MIX",2,5,139,140,NA,NA,NA,NA
"703",1,3,9,1,1,8,1,8,1,1,1,1131,6,0,"MIX",4,5,3,1,142,143,144,145
"704",1,3,10,2,1,4,0,0,2,1,1,727,10,1,"MIX",3,7,146,147,NA,NA,NA,NA
"705",1,3,11,2,1,8,0,0,2,0,0,1084,13,1,"MIX",7,5,8,4,148,149,150,151
"706",1,3,12,2,1,2,0,0,2,1,1,2211,153,1,"MIX",8,152,NA,NA,NA,NA,NA,NA
"707",1,3,13,2,1,8,0,0,2,1,1,1967,158,1,"MIX",7,5,1,2,154,155,156,157
"708",1,3,14,1,1,4,2,3,1,0,0,3272,3,0,"MIX",5,2,159,160,NA,NA,NA,NA
"709",1,3,15,1,1,8,2,7,2,1,0,1096,3,0,"MIX",5,4,6,1,161,162,163,164
"710",1,3,16,1,1,2,2,1,2,1,0,625,2,0,"MIX",2,165,NA,NA,NA,NA,NA,NA
"711",1,3,17,1,1,8,2,7,1,1,1,698,3,0,"MIX",2,3,6,4,166,167,168,169
"712",1,3,18,2,1,2,0,0,2,1,1,690,9,1,"MIX",8,170,NA,NA,NA,NA,NA,NA
"713",1,3,19,1,1,8,6,3,2,1,0,633,3,0,"MIX",8,7,6,4,171,172,173,174
"714",1,3,20,2,1,2,0,0,2,0,0,3107,176,1,"MIX",3,175,NA,NA,NA,NA,NA,NA
"715",1,3,21,2,1,8,0,0,1,1,0,1977,181,1,"MIX",6,5,8,1,177,178,179,180
"716",1,3,22,1,1,8,7,2,1,1,1,748,3,0,"MIX",7,4,5,1,182,183,184,185
"717",1,3,23,1,1,4,2,3,1,1,1,1159,8,0,"MIX",3,7,186,187,NA,NA,NA,NA
"718",1,3,24,2,1,8,0,0,2,1,1,587,9,1,"MIX",7,1,3,8,188,189,190,191
"719",1,4,1,1,1,4,2,3,2,1,0,723,4,0,"MIX",1,2,192,193,NA,NA,NA,NA
"720",1,4,2,2,1,8,0,0,2,0,0,1079,13,1,"MIX",7,3,6,8,194,195,196,197
"721",1,4,3,1,1,8,2,7,1,1,1,607,1,0,"MIX",3,8,7,1,198,199,200,201
"722",1,4,4,2,1,2,0,0,1,1,0,2347,203,1,"MIX",8,202,NA,NA,NA,NA,NA,NA
"723",1,4,5,1,1,2,1,2,1,1,1,593,3,0,"MIX",3,204,NA,NA,NA,NA,NA,NA
"724",1,4,6,2,1,2,0,0,1,1,0,718,11,1,"MIX",5,205,NA,NA,NA,NA,NA,NA
"725",1,4,7,2,1,4,0,0,2,1,1,1114,14,1,"MIX",1,5,206,207,NA,NA,NA,NA
"726",1,4,8,2,1,2,0,0,2,1,1,625,15,1,"MIX",4,208,NA,NA,NA,NA,NA,NA
"727",1,4,9,2,1,2,0,0,2,1,1,1595,210,1,"MIX",1,209,NA,NA,NA,NA,NA,NA
"728",1,4,10,2,1,8,0,0,1,0,1,3375,215,1,"MIX",4,1,5,7,211,212,213,214
"729",1,4,11,1,1,2,2,1,2,1,0,748,2,0,"MIX",2,216,NA,NA,NA,NA,NA,NA
"730",1,4,12,2,1,8,0,0,1,0,1,960,221,1,"MIX",1,2,4,5,217,218,219,220
"731",1,4,13,1,1,8,4,5,2,1,0,1116,4,0,"MIX",4,3,5,1,222,223,224,225
"732",1,4,14,1,1,4,4,1,1,1,1,601,7,0,"MIX",5,2,226,227,NA,NA,NA,NA
"733",1,4,15,2,1,2,0,0,2,0,0,1268,229,1,"MIX",7,228,NA,NA,NA,NA,NA,NA
"734",1,4,16,1,1,8,3,6,1,1,1,627,5,0,"MIX",1,8,2,6,230,231,232,233
"735",1,4,17,2,1,2,0,0,1,0,1,1982,235,1,"MIX",5,234,NA,NA,NA,NA,NA,NA
"736",1,4,18,1,1,2,1,2,2,1,0,786,3,0,"MIX",3,236,NA,NA,NA,NA,NA,NA
"737",1,4,19,2,1,4,0,0,1,1,0,1083,239,1,"MIX",7,8,237,238,NA,NA,NA,NA
"738",1,4,20,2,1,4,0,0,1,1,0,713,9,1,"MIX",3,2,240,241,NA,NA,NA,NA
"739",1,4,21,2,1,2,0,0,2,1,1,576,15,1,"MIX",7,242,NA,NA,NA,NA,NA,NA
"740",1,4,22,1,1,8,3,6,2,1,0,716,8,0,"MIX",1,8,5,7,243,244,245,246
"741",1,4,23,1,1,2,2,1,1,1,1,580,4,0,"MIX",5,247,NA,NA,NA,NA,NA,NA
"742",1,4,24,2,1,8,0,0,1,1,0,704,16,1,"MIX",7,3,4,6,248,249,250,251
"743",1,5,1,2,1,4,0,0,1,0,1,1644,254,1,"MIX",1,5,252,253,NA,NA,NA,NA
"744",1,5,2,2,1,2,0,0,1,1,0,591,13,1,"MIX",5,255,NA,NA,NA,NA,NA,NA
"745",1,5,3,2,1,8,0,0,2,1,1,1371,260,1,"MIX",8,2,3,5,256,257,258,259
"746",1,5,4,2,1,8,0,0,1,1,0,1926,265,1,"MIX",6,7,1,5,261,262,263,264
"747",1,5,5,2,1,8,0,0,1,0,1,1276,270,1,"MIX",4,2,7,5,266,267,268,269
"748",1,5,6,2,1,2,0,0,2,0,0,3149,272,1,"MIX",1,271,NA,NA,NA,NA,NA,NA
"749",1,5,7,2,1,2,0,0,1,1,0,803,14,1,"MIX",3,273,NA,NA,NA,NA,NA,NA
"750",1,5,8,2,1,4,0,0,1,1,0,604,16,1,"MIX",2,7,274,275,NA,NA,NA,NA
"751",1,5,9,1,1,4,4,1,2,1,0,780,3,0,"MIX",4,1,276,277,NA,NA,NA,NA
"752",1,5,10,1,1,4,3,2,2,1,0,678,8,0,"MIX",8,3,278,279,NA,NA,NA,NA
"753",1,5,11,2,1,4,0,0,1,0,1,1253,282,1,"MIX",5,8,280,281,NA,NA,NA,NA
"754",1,5,12,1,1,2,1,2,2,1,0,631,7,0,"MIX",8,283,NA,NA,NA,NA,NA,NA
"755",1,5,13,2,1,4,0,0,2,1,1,807,9,1,"MIX",2,6,284,285,NA,NA,NA,NA
"756",1,5,14,2,1,4,0,0,2,1,1,671,14,1,"MIX",3,7,286,287,NA,NA,NA,NA
"757",1,5,15,1,1,2,2,1,1,1,1,632,2,0,"MIX",5,288,NA,NA,NA,NA,NA,NA
"758",1,5,16,1,1,8,8,1,2,1,0,690,2,0,"MIX",6,2,1,3,289,290,291,292
"759",1,5,17,2,1,4,0,0,1,1,0,976,12,1,"MIX",8,6,293,294,NA,NA,NA,NA
"760",1,5,18,1,1,4,1,4,2,1,0,593,7,0,"MIX",6,7,295,296,NA,NA,NA,NA
"761",1,5,19,2,1,8,0,0,2,1,1,507,15,1,"MIX",6,1,4,5,297,298,299,300
"762",1,5,20,2,1,8,0,0,1,0,1,1658,305,1,"MIX",6,2,1,7,301,302,303,304
"763",1,5,21,2,1,8,0,0,2,0,0,2043,310,1,"MIX",7,1,6,3,306,307,308,309
"764",1,5,22,1,1,8,2,7,1,1,1,764,2,0,"MIX",2,8,1,7,311,312,313,314
"765",1,5,23,1,1,4,4,1,2,1,0,759,1,0,"MIX",1,2,315,316,NA,NA,NA,NA
"766",1,5,24,2,1,8,0,0,1,0,1,1596,321,1,"MIX",4,2,1,8,317,318,319,320
"767",1,6,1,1,1,8,2,7,2,1,0,652,4,0,"MIX",7,1,5,6,322,323,324,325
"768",1,6,2,1,1,4,3,2,2,1,0,665,7,0,"MIX",3,7,326,327,NA,NA,NA,NA
"769",1,6,3,1,1,2,1,2,1,1,1,595,2,0,"MIX",2,328,NA,NA,NA,NA,NA,NA
"770",1,6,4,2,1,4,0,0,2,1,1,629,15,1,"MIX",8,7,329,330,NA,NA,NA,NA
"771",1,6,5,2,1,4,0,0,1,0,1,2837,12,1,"MIX",6,8,331,332,NA,NA,NA,NA
"772",1,6,6,1,1,4,1,4,1,1,1,588,7,0,"MIX",6,7,333,334,NA,NA,NA,NA
"773",1,6,7,1,1,4,2,3,2,1,0,780,3,0,"MIX",3,6,335,336,NA,NA,NA,NA
"774",1,6,8,2,1,2,0,0,1,0,1,1232,338,1,"MIX",8,337,NA,NA,NA,NA,NA,NA
"775",1,6,9,2,1,8,0,0,2,0,0,1440,343,1,"MIX",6,1,8,7,339,340,341,342
"776",1,6,10,2,1,4,0,0,1,1,0,911,16,1,"MIX",1,5,344,345,NA,NA,NA,NA
"777",1,6,11,1,1,8,8,1,1,1,1,400,1,0,"MIX",1,3,7,6,346,347,348,349
"778",1,6,12,2,1,8,0,0,2,1,1,642,14,1,"MIX",8,5,4,3,350,351,352,353
"779",1,6,13,1,1,4,2,3,1,1,1,1362,2,0,"MIX",4,2,354,355,NA,NA,NA,NA
"780",1,6,14,1,1,2,2,1,2,1,0,560,2,0,"MIX",2,356,NA,NA,NA,NA,NA,NA
"781",1,6,15,1,1,8,7,2,2,1,0,541,6,0,"MIX",3,8,4,1,357,358,359,360
"782",1,6,16,1,1,8,2,7,2,1,0,873,4,0,"MIX",6,3,5,8,361,362,363,364
"783",1,6,17,2,1,8,0,0,1,1,0,777,14,1,"MIX",3,1,8,5,365,366,367,368
"784",1,6,18,1,1,4,4,1,1,1,1,562,8,0,"MIX",1,4,369,370,NA,NA,NA,NA
"785",1,6,19,1,1,2,2,1,1,1,1,624,5,0,"MIX",8,371,NA,NA,NA,NA,NA,NA
"786",1,6,20,2,1,2,0,0,1,1,0,715,11,1,"MIX",5,372,NA,NA,NA,NA,NA,NA
"787",1,6,21,2,1,8,0,0,1,1,0,816,13,1,"MIX",6,4,2,7,373,374,375,376
"788",1,6,22,1,1,4,4,1,2,1,0,1256,8,0,"MIX",4,6,377,378,NA,NA,NA,NA
"789",1,6,23,2,1,4,0,0,1,0,1,1086,381,1,"MIX",5,7,379,380,NA,NA,NA,NA
"790",1,6,24,1,1,2,2,1,2,1,0,743,5,0,"MIX",6,382,NA,NA,NA,NA,NA,NA
"791",1,7,1,2,1,8,0,0,2,1,1,638,16,1,"MIX",5,3,1,8,383,384,385,386
"792",1,7,2,1,1,2,1,2,1,1,1,600,8,0,"MIX",8,387,NA,NA,NA,NA,NA,NA
"793",1,7,3,1,1,4,1,4,1,1,1,793,8,0,"MIX",4,8,388,389,NA,NA,NA,NA
"794",1,7,4,1,1,8,7,2,1,1,1,973,4,0,"MIX",8,4,5,2,390,391,392,393
"795",1,7,5,2,1,8,0,0,1,1,0,761,10,1,"MIX",5,8,1,6,394,395,396,397
"796",1,7,6,1,1,4,4,1,2,1,0,739,5,0,"MIX",7,5,398,399,NA,NA,NA,NA
"797",1,7,7,2,1,8,0,0,1,1,0,600,10,1,"MIX",6,7,3,2,400,401,402,403
"798",1,7,8,2,1,4,0,0,2,0,0,2169,406,1,"MIX",1,2,404,405,NA,NA,NA,NA
"799",1,7,9,1,1,4,3,2,1,1,1,4459,7,0,"MIX",1,5,407,408,NA,NA,NA,NA
"800",1,7,10,2,1,2,0,0,1,1,0,541,16,1,"MIX",6,409,NA,NA,NA,NA,NA,NA
"801",1,7,11,2,1,2,0,0,2,1,1,684,9,1,"MIX",7,410,NA,NA,NA,NA,NA,NA
"802",1,7,12,2,1,4,0,0,2,1,1,600,10,1,"MIX",2,3,411,412,NA,NA,NA,NA
"803",1,7,13,2,1,8,0,0,2,0,0,1731,417,1,"MIX",8,3,4,5,413,414,415,416
"804",1,7,14,1,1,8,8,1,1,1,1,432,3,0,"MIX",8,4,2,3,418,419,420,421
"805",1,7,15,1,1,8,8,1,2,1,0,657,1,0,"MIX",6,5,1,2,422,423,424,425
"806",1,7,16,2,1,2,0,0,1,0,1,3963,427,1,"MIX",7,426,NA,NA,NA,NA,NA,NA
"807",1,7,17,2,1,2,0,0,1,1,0,3537,13,1,"MIX",3,428,NA,NA,NA,NA,NA,NA
"808",1,7,18,1,1,8,7,2,2,1,0,1653,8,0,"MIX",7,2,5,6,429,430,431,432
"809",1,7,19,1,1,4,2,3,2,1,0,573,2,0,"MIX",3,2,433,434,NA,NA,NA,NA
"810",1,7,20,1,1,2,2,1,1,1,1,650,4,0,"MIX",4,435,NA,NA,NA,NA,NA,NA
"811",1,7,21,1,1,4,2,3,2,1,0,680,3,0,"MIX",2,7,436,437,NA,NA,NA,NA
"812",1,7,22,2,1,8,0,0,2,0,0,1198,442,1,"MIX",8,7,1,6,438,439,440,441
"813",1,7,23,2,1,2,0,0,1,0,1,2114,444,1,"MIX",6,443,NA,NA,NA,NA,NA,NA
"814",1,7,24,1,1,8,5,4,1,0,0,2032,2,0,"MIX",4,7,3,8,445,446,447,448
"815",1,8,1,1,1,2,2,1,1,1,1,786,6,0,"MIX",8,449,NA,NA,NA,NA,NA,NA
"816",1,8,2,2,1,2,0,0,1,1,0,935,15,1,"MIX",3,450,NA,NA,NA,NA,NA,NA
"817",1,8,3,2,1,8,0,0,2,1,1,627,15,1,"MIX",1,3,8,7,451,452,453,454
"818",1,8,4,2,1,4,0,0,2,0,0,3650,457,1,"MIX",2,6,455,456,NA,NA,NA,NA
"819",1,8,5,1,1,2,1,2,1,0,0,547,6,0,"MIX",1,458,NA,NA,NA,NA,NA,NA
"820",1,8,6,2,1,4,0,0,1,1,0,4325,461,1,"MIX",3,8,459,460,NA,NA,NA,NA
"821",1,8,7,2,1,2,0,0,1,0,1,2828,463,1,"MIX",8,462,NA,NA,NA,NA,NA,NA
"822",1,8,8,1,1,8,5,4,1,1,1,1277,3,0,"MIX",4,7,1,6,464,465,466,467
"823",1,8,9,2,1,4,0,0,1,1,0,770,10,1,"MIX",3,8,468,469,NA,NA,NA,NA
"824",1,8,10,2,1,4,0,0,1,0,1,1484,472,1,"MIX",3,2,470,471,NA,NA,NA,NA
"825",1,8,11,2,1,8,0,0,2,1,1,595,15,1,"MIX",3,8,1,7,473,474,475,476
"826",1,8,12,1,1,2,1,2,2,1,0,928,4,0,"MIX",8,477,NA,NA,NA,NA,NA,NA
"827",1,8,13,2,1,8,0,0,1,1,0,1181,482,1,"MIX",5,7,4,6,478,479,480,481
"828",1,8,14,1,1,4,3,2,1,1,1,1239,5,0,"MIX",4,2,483,484,NA,NA,NA,NA
"829",1,8,15,1,1,4,4,1,1,1,1,558,3,0,"MIX",3,6,485,486,NA,NA,NA,NA
"830",1,8,16,2,1,2,0,0,1,0,1,1307,488,1,"MIX",1,487,NA,NA,NA,NA,NA,NA
"831",1,8,17,2,1,2,0,0,2,1,1,667,11,1,"MIX",4,489,NA,NA,NA,NA,NA,NA
"832",1,8,18,2,1,8,0,0,2,1,1,722,16,1,"MIX",5,2,3,4,490,491,492,493
"833",1,8,19,1,1,8,2,7,1,1,1,728,1,0,"MIX",5,2,1,3,494,495,496,497
"834",1,8,20,2,1,2,0,0,2,0,0,4974,499,1,"MIX",7,498,NA,NA,NA,NA,NA,NA
"835",1,8,21,2,1,8,0,0,2,1,1,1193,10,1,"MIX",1,3,7,2,500,501,502,503
"836",1,8,22,2,1,2,0,0,1,0,1,1934,505,1,"MIX",7,504,NA,NA,NA,NA,NA,NA
"837",1,8,23,2,1,4,0,0,2,1,1,601,9,1,"MIX",8,6,506,507,NA,NA,NA,NA
"838",1,8,24,1,1,2,1,2,1,1,1,821,2,0,"MIX",6,508,NA,NA,NA,NA,NA,NA
"839",1,9,1,1,1,2,1,2,1,1,1,691,4,0,"MIX",2,509,NA,NA,NA,NA,NA,NA
"840",1,9,2,2,1,8,0,0,2,0,0,1867,514,1,"MIX",5,3,1,4,510,511,512,513
"841",1,9,3,1,1,4,4,1,1,1,1,569,5,0,"MIX",3,4,515,516,NA,NA,NA,NA
"842",1,9,4,2,1,4,0,0,2,1,1,2187,519,1,"MIX",6,2,517,518,NA,NA,NA,NA
"843",1,9,5,2,1,4,0,0,1,1,0,621,10,1,"MIX",8,4,520,521,NA,NA,NA,NA
"844",1,9,6,1,1,2,1,2,1,1,1,647,6,0,"MIX",6,522,NA,NA,NA,NA,NA,NA
"845",1,9,7,1,1,4,1,4,1,1,1,870,1,0,"MIX",2,6,523,524,NA,NA,NA,NA
"846",1,9,8,1,1,8,5,4,2,1,0,1446,7,0,"MIX",4,5,7,3,525,526,527,528
"847",1,9,9,2,1,2,0,0,2,1,1,656,13,1,"MIX",8,529,NA,NA,NA,NA,NA,NA
"848",1,9,10,1,1,4,2,3,2,1,0,622,4,0,"MIX",2,6,530,531,NA,NA,NA,NA
"849",1,9,11,1,1,4,2,3,1,1,1,1214,4,0,"MIX",3,7,532,533,NA,NA,NA,NA
"850",1,9,12,2,1,8,0,0,1,0,1,3984,538,1,"MIX",3,4,8,1,534,535,536,537
"851",1,9,13,2,1,4,0,0,2,1,1,1145,541,1,"MIX",4,6,539,540,NA,NA,NA,NA
"852",1,9,14,2,1,4,0,0,1,1,0,1092,11,1,"MIX",4,5,542,543,NA,NA,NA,NA
"853",1,9,15,1,1,8,7,2,1,1,1,539,2,0,"MIX",6,7,2,5,544,545,546,547
"854",1,9,16,1,1,4,4,1,2,1,0,574,7,0,"MIX",5,7,548,549,NA,NA,NA,NA
"855",1,9,17,2,1,2,0,0,2,1,1,572,15,1,"MIX",6,550,NA,NA,NA,NA,NA,NA
"856",1,9,18,1,1,8,1,8,1,1,1,936,2,0,"MIX",1,2,5,7,551,552,553,554
"857",1,9,19,1,1,4,4,1,2,1,0,1340,3,0,"MIX",3,8,555,556,NA,NA,NA,NA
"858",1,9,20,1,1,8,6,3,1,1,1,730,8,0,"MIX",4,7,6,3,557,558,559,560
"859",1,9,21,2,1,2,0,0,2,0,0,4193,562,1,"MIX",1,561,NA,NA,NA,NA,NA,NA
"860",1,9,22,2,1,2,0,0,2,1,1,637,13,1,"MIX",1,563,NA,NA,NA,NA,NA,NA
"861",1,9,23,2,1,4,0,0,1,0,1,3771,566,1,"MIX",5,2,564,565,NA,NA,NA,NA
"862",1,9,24,1,1,8,5,4,1,1,1,1014,8,0,"MIX",7,4,1,6,567,568,569,570
"863",2,1,1,2,1,8,0,0,2,0,0,4046,12,1,"MIX",3,8,5,2,17,18,19,20
"864",2,1,2,2,1,2,0,0,2,0,0,3087,10,1,"MIX",1,21,NA,NA,NA,NA,NA,NA
"865",2,1,3,2,1,4,0,0,1,1,0,3713,14,1,"MIX",4,2,22,23,NA,NA,NA,NA
"866",2,1,4,2,1,8,0,0,2,0,0,2769,10,1,"MIX",6,8,2,1,24,25,26,27
"867",2,1,5,2,1,4,0,0,2,1,1,2905,30,0,"MIX",3,5,28,29,NA,NA,NA,NA
"868",2,1,6,1,1,2,1,2,1,0,0,1944,31,0,"MIX",7,31,NA,NA,NA,NA,NA,NA
"869",2,1,7,2,1,4,0,0,2,0,0,1370,34,0,"MIX",6,5,32,33,NA,NA,NA,NA
"870",2,1,8,2,1,4,0,0,1,1,0,1428,10,1,"MIX",8,4,35,36,NA,NA,NA,NA
"871",2,1,9,1,1,8,3,6,1,1,1,1344,7,1,"MIX",2,1,6,7,37,38,39,40
"872",2,1,10,1,1,8,5,4,1,1,1,746,2,1,"MIX",7,5,2,6,41,42,43,44
"873",2,1,11,2,1,8,0,0,1,0,1,943,6,1,"MIX",1,6,4,7,45,46,47,48
"874",2,1,12,2,1,8,0,0,2,1,1,1401,53,0,"MIX",8,1,7,2,49,50,51,52
"875",2,1,13,1,1,2,1,2,1,0,0,1636,5,1,"MIX",5,54,NA,NA,NA,NA,NA,NA
"876",2,1,14,2,1,8,0,0,1,0,1,1365,5,1,"MIX",5,4,1,7,55,56,57,58
"877",2,1,15,2,1,8,0,0,2,1,1,1201,8,1,"MIX",7,8,3,4,59,60,61,62
"878",2,1,16,1,1,2,1,2,2,1,0,1596,5,1,"MIX",5,63,NA,NA,NA,NA,NA,NA
"879",2,1,17,2,1,2,0,0,2,1,1,1296,1,1,"MIX",7,64,NA,NA,NA,NA,NA,NA
"880",2,1,18,1,1,2,1,2,2,0,1,1137,4,1,"MIX",4,65,NA,NA,NA,NA,NA,NA
"881",2,1,19,2,1,2,0,0,1,1,0,1142,67,0,"MIX",3,66,NA,NA,NA,NA,NA,NA
"882",2,1,20,1,1,4,3,2,2,0,1,1088,2,1,"MIX",2,8,68,69,NA,NA,NA,NA
"883",2,1,21,1,1,2,1,2,2,0,1,2182,70,0,"MIX",1,70,NA,NA,NA,NA,NA,NA
"884",2,1,22,2,1,4,0,0,1,0,1,174,6,1,"MIX",5,1,71,72,NA,NA,NA,NA
"885",2,1,23,1,1,4,1,4,2,0,1,597,5,1,"MIX",3,5,73,74,NA,NA,NA,NA
"886",2,1,24,1,1,4,1,4,1,0,0,1532,75,0,"MIX",2,4,75,76,NA,NA,NA,NA
"887",2,2,1,1,1,8,3,6,2,0,1,1139,79,0,"MIX",6,7,1,3,77,78,79,80
"888",2,2,2,2,1,4,0,0,2,1,1,1045,83,0,"MIX",7,6,81,82,NA,NA,NA,NA
"889",2,2,3,1,1,8,1,8,2,1,0,1299,85,0,"MIX",4,2,7,1,84,85,86,87
"890",2,2,4,2,1,4,0,0,1,0,1,2521,1,1,"MIX",8,1,88,89,NA,NA,NA,NA
"891",2,2,5,2,1,4,0,0,2,1,1,500,7,1,"MIX",3,1,90,91,NA,NA,NA,NA
"892",2,2,6,1,1,8,8,1,2,0,1,1103,2,1,"MIX",8,7,1,2,92,93,94,95
"893",2,2,7,2,1,8,0,0,1,1,0,1181,15,1,"MIX",4,8,7,2,96,97,98,99
"894",2,2,8,2,1,8,0,0,2,0,0,775,104,0,"MIX",5,1,8,2,100,101,102,103
"895",2,2,9,2,1,8,0,0,2,1,1,465,7,1,"MIX",8,4,2,3,105,106,107,108
"896",2,2,10,1,1,2,2,1,1,0,0,1379,8,1,"MIX",8,109,NA,NA,NA,NA,NA,NA
"897",2,2,11,2,1,4,0,0,1,0,1,1316,2,1,"MIX",6,2,110,111,NA,NA,NA,NA
"898",2,2,12,2,1,4,0,0,2,0,0,959,11,1,"MIX",3,5,112,113,NA,NA,NA,NA
"899",2,2,13,1,1,2,2,1,2,1,0,2740,114,0,"MIX",5,114,NA,NA,NA,NA,NA,NA
"900",2,2,14,1,1,4,3,2,2,0,1,1047,115,0,"MIX",2,4,115,116,NA,NA,NA,NA
"901",2,2,15,2,1,2,0,0,1,1,0,1152,118,0,"MIX",8,117,NA,NA,NA,NA,NA,NA
"902",2,2,16,1,1,2,1,2,2,1,0,1645,119,0,"MIX",7,119,NA,NA,NA,NA,NA,NA
"903",2,2,17,2,1,4,0,0,1,1,0,1019,122,0,"MIX",3,6,120,121,NA,NA,NA,NA
"904",2,2,18,2,1,2,0,0,1,1,0,693,15,1,"MIX",8,123,NA,NA,NA,NA,NA,NA
"905",2,2,19,2,1,2,0,0,1,1,0,790,125,0,"MIX",3,124,NA,NA,NA,NA,NA,NA
"906",2,2,20,2,1,8,0,0,1,0,1,609,8,1,"MIX",2,7,6,3,126,127,128,129
"907",2,2,21,2,1,4,0,0,1,1,0,770,12,1,"MIX",6,5,130,131,NA,NA,NA,NA
"908",2,2,22,1,1,8,8,1,2,0,1,2510,133,0,"MIX",1,3,8,2,132,133,134,135
"909",2,2,23,2,1,4,0,0,1,1,0,1147,138,0,"MIX",6,4,136,137,NA,NA,NA,NA
"910",2,2,24,2,1,2,0,0,2,0,0,2952,140,0,"MIX",4,139,NA,NA,NA,NA,NA,NA
"911",2,3,1,1,1,4,4,1,1,1,1,1368,1,1,"MIX",1,7,141,142,NA,NA,NA,NA
"912",2,3,2,2,1,4,0,0,2,0,0,722,145,0,"MIX",2,8,143,144,NA,NA,NA,NA
"913",2,3,3,2,1,4,0,0,2,0,0,1134,148,0,"MIX",6,5,146,147,NA,NA,NA,NA
"914",2,3,4,1,1,2,1,2,2,1,0,972,149,0,"MIX",1,149,NA,NA,NA,NA,NA,NA
"915",2,3,5,2,1,4,0,0,1,0,1,2091,152,0,"MIX",4,1,150,151,NA,NA,NA,NA
"916",2,3,6,2,1,8,0,0,2,0,0,1786,14,1,"MIX",1,6,3,5,153,154,155,156
"917",2,3,7,2,1,4,0,0,1,0,1,1523,2,1,"MIX",7,2,157,158,NA,NA,NA,NA
"918",2,3,8,1,1,8,3,6,2,0,1,2111,4,1,"MIX",4,6,7,3,159,160,161,162
"919",2,3,9,2,1,2,0,0,1,0,1,1116,1,1,"MIX",7,163,NA,NA,NA,NA,NA,NA
"920",2,3,10,2,1,4,0,0,2,1,1,744,166,0,"MIX",2,7,164,165,NA,NA,NA,NA
"921",2,3,11,2,1,8,0,0,2,1,1,772,171,0,"MIX",8,5,3,7,167,168,169,170
"922",2,3,12,1,1,4,3,2,2,0,1,605,3,1,"MIX",3,5,172,173,NA,NA,NA,NA
"923",2,3,13,1,1,4,4,1,1,0,0,1252,4,1,"MIX",4,6,174,175,NA,NA,NA,NA
"924",2,3,14,2,1,4,0,0,2,1,1,707,4,1,"MIX",7,3,176,177,NA,NA,NA,NA
"925",2,3,15,1,1,8,5,4,1,0,0,888,1,1,"MIX",1,5,3,7,178,179,180,181
"926",2,3,16,2,1,4,0,0,2,1,1,1069,184,0,"MIX",3,2,182,183,NA,NA,NA,NA
"927",2,3,17,2,1,8,0,0,2,1,1,1019,189,0,"MIX",7,6,5,8,185,186,187,188
"928",2,3,18,1,1,4,3,2,1,0,0,867,4,1,"MIX",4,8,190,191,NA,NA,NA,NA
"929",2,3,19,1,1,8,6,3,1,1,1,859,3,1,"MIX",5,2,3,4,192,193,194,195
"930",2,3,20,2,1,4,0,0,1,0,1,721,1,1,"MIX",8,3,196,197,NA,NA,NA,NA
"931",2,3,21,2,1,2,0,0,1,0,1,655,3,1,"MIX",1,198,NA,NA,NA,NA,NA,NA
"932",2,3,22,2,1,8,0,0,2,1,1,501,203,0,"MIX",8,1,2,6,199,200,201,202
"933",2,3,23,2,1,2,0,0,2,1,1,524,205,0,"MIX",3,204,NA,NA,NA,NA,NA,NA
"934",2,3,24,2,1,8,0,0,2,0,0,562,16,1,"MIX",2,1,4,5,206,207,208,209
"935",2,4,1,1,1,8,1,8,2,0,1,726,2,1,"MIX",2,3,8,7,210,211,212,213
"936",2,4,2,2,1,4,0,0,2,0,0,2152,12,1,"MIX",2,1,214,215,NA,NA,NA,NA
"937",2,4,3,2,1,8,0,0,1,1,0,395,220,0,"MIX",6,8,7,1,216,217,218,219
"938",2,4,4,1,1,8,6,3,1,0,0,1029,2,1,"MIX",2,4,7,6,221,222,223,224
"939",2,4,5,1,1,2,2,1,1,1,1,768,8,1,"MIX",8,225,NA,NA,NA,NA,NA,NA
"940",2,4,6,1,1,2,2,1,1,1,1,525,7,1,"MIX",7,226,NA,NA,NA,NA,NA,NA
"941",2,4,7,2,1,2,0,0,2,0,0,1123,15,1,"MIX",7,227,NA,NA,NA,NA,NA,NA
"942",2,4,8,2,1,8,0,0,1,1,0,568,232,0,"MIX",6,4,3,5,228,229,230,231
"943",2,4,9,1,1,4,1,4,2,0,1,329,234,0,"MIX",8,5,233,234,NA,NA,NA,NA
"944",2,4,10,1,1,8,2,7,1,1,1,294,5,1,"MIX",4,1,5,6,235,236,237,238
"945",2,4,11,2,1,8,0,0,2,1,1,716,243,0,"MIX",5,8,4,1,239,240,241,242
"946",2,4,12,2,1,8,0,0,2,0,0,838,248,0,"MIX",6,7,2,4,244,245,246,247
"947",2,4,13,1,1,2,1,2,2,1,0,672,249,0,"MIX",7,249,NA,NA,NA,NA,NA,NA
"948",2,4,14,1,1,2,2,1,1,0,0,865,4,1,"MIX",4,250,NA,NA,NA,NA,NA,NA
"949",2,4,15,1,1,2,1,2,2,1,0,650,251,0,"MIX",2,251,NA,NA,NA,NA,NA,NA
"950",2,4,16,2,1,2,0,0,1,0,1,538,253,0,"MIX",6,252,NA,NA,NA,NA,NA,NA
"951",2,4,17,1,1,2,2,1,2,1,0,798,4,1,"MIX",4,254,NA,NA,NA,NA,NA,NA
"952",2,4,18,2,1,8,0,0,2,0,0,782,14,1,"MIX",7,3,5,8,255,256,257,258
"953",2,4,19,1,1,4,4,1,1,0,0,319,260,0,"MIX",1,2,259,260,NA,NA,NA,NA
"954",2,4,20,2,1,4,0,0,1,1,0,539,263,0,"MIX",1,7,261,262,NA,NA,NA,NA
"955",2,4,21,2,1,8,0,0,1,0,1,759,268,0,"MIX",2,7,1,6,264,265,266,267
"956",2,4,22,1,1,2,1,2,2,0,1,748,269,0,"MIX",7,269,NA,NA,NA,NA,NA,NA
"957",2,4,23,1,1,8,4,5,1,0,0,879,271,0,"MIX",1,7,6,3,270,271,272,273
"958",2,4,24,1,1,2,1,2,2,1,0,1105,274,0,"MIX",6,274,NA,NA,NA,NA,NA,NA
"959",2,5,1,2,1,4,0,0,1,0,1,516,277,0,"MIX",1,4,275,276,NA,NA,NA,NA
"960",2,5,2,2,1,2,0,0,2,1,1,1065,279,0,"MIX",2,278,NA,NA,NA,NA,NA,NA
"961",2,5,3,1,1,2,2,1,1,0,0,810,5,1,"MIX",5,280,NA,NA,NA,NA,NA,NA
"962",2,5,4,1,1,2,2,1,2,1,0,413,281,0,"MIX",4,281,NA,NA,NA,NA,NA,NA
"963",2,5,5,2,1,4,0,0,2,1,1,661,2,1,"MIX",3,4,282,283,NA,NA,NA,NA
"964",2,5,6,2,1,2,0,0,2,1,1,755,285,0,"MIX",7,284,NA,NA,NA,NA,NA,NA
"965",2,5,7,2,1,4,0,0,2,0,0,853,288,0,"MIX",3,1,286,287,NA,NA,NA,NA
"966",2,5,8,2,1,8,0,0,2,1,1,717,7,1,"MIX",1,4,3,5,289,290,291,292
"967",2,5,9,1,1,2,1,2,1,1,1,1491,8,1,"MIX",8,293,NA,NA,NA,NA,NA,NA
"968",2,5,10,1,1,4,3,2,2,0,1,825,7,1,"MIX",7,3,294,295,NA,NA,NA,NA
"969",2,5,11,2,1,4,0,0,2,1,1,416,298,0,"MIX",7,1,296,297,NA,NA,NA,NA
"970",2,5,12,1,1,4,2,3,2,0,1,1686,299,0,"MIX",4,2,299,300,NA,NA,NA,NA
"971",2,5,13,1,1,2,1,2,1,1,1,357,301,0,"MIX",5,301,NA,NA,NA,NA,NA,NA
"972",2,5,14,1,1,4,2,3,1,1,1,295,302,0,"MIX",8,7,302,303,NA,NA,NA,NA
"973",2,5,15,1,1,8,6,3,1,1,1,506,306,0,"MIX",6,3,5,4,304,305,306,307
"974",2,5,16,2,1,8,0,0,2,1,1,602,1,1,"MIX",8,6,1,2,308,309,310,311
"975",2,5,17,1,1,2,2,1,2,1,0,453,312,0,"MIX",4,312,NA,NA,NA,NA,NA,NA
"976",2,5,18,1,1,2,2,1,2,1,0,343,4,1,"MIX",4,313,NA,NA,NA,NA,NA,NA
"977",2,5,19,2,1,8,0,0,1,1,0,577,318,0,"MIX",6,2,1,8,314,315,316,317
"978",2,5,20,2,1,8,0,0,2,1,1,641,323,0,"MIX",3,6,1,5,319,320,321,322
"979",2,5,21,1,1,2,1,2,2,1,0,787,1,1,"MIX",1,324,NA,NA,NA,NA,NA,NA
"980",2,5,22,1,1,2,2,1,2,0,1,415,2,1,"MIX",2,325,NA,NA,NA,NA,NA,NA
"981",2,5,23,2,1,4,0,0,2,1,1,597,3,1,"MIX",3,2,326,327,NA,NA,NA,NA
"982",2,5,24,1,1,4,3,2,1,0,0,558,328,0,"MIX",3,1,328,329,NA,NA,NA,NA
"983",2,6,1,1,1,2,2,1,1,1,1,437,330,0,"MIX",4,330,NA,NA,NA,NA,NA,NA
"984",2,6,2,1,1,8,4,5,2,1,0,870,331,0,"MIX",5,6,3,8,331,332,333,334
"985",2,6,3,1,1,2,1,2,2,0,1,773,7,1,"MIX",7,335,NA,NA,NA,NA,NA,NA
"986",2,6,4,2,1,2,0,0,1,1,0,538,9,1,"MIX",3,336,NA,NA,NA,NA,NA,NA
"987",2,6,5,1,1,2,1,2,1,1,1,361,7,1,"MIX",7,337,NA,NA,NA,NA,NA,NA
"988",2,6,6,2,1,4,0,0,2,1,1,507,340,0,"MIX",4,1,338,339,NA,NA,NA,NA
"989",2,6,7,2,1,2,0,0,2,1,1,531,5,1,"MIX",8,341,NA,NA,NA,NA,NA,NA
"990",2,6,8,1,1,4,3,2,2,1,0,630,342,0,"MIX",3,1,342,343,NA,NA,NA,NA
"991",2,6,9,1,1,2,1,2,1,1,1,841,7,1,"MIX",7,344,NA,NA,NA,NA,NA,NA
"992",2,6,10,2,1,2,0,0,2,1,1,650,346,0,"MIX",2,345,NA,NA,NA,NA,NA,NA
"993",2,6,11,2,1,2,0,0,2,1,1,554,348,0,"MIX",3,347,NA,NA,NA,NA,NA,NA
"994",2,6,12,2,1,4,0,0,1,1,0,460,351,0,"MIX",2,8,349,350,NA,NA,NA,NA
"995",2,6,13,2,1,2,0,0,1,0,1,686,4,1,"MIX",2,352,NA,NA,NA,NA,NA,NA
"996",2,6,14,2,1,8,0,0,1,1,0,1491,357,0,"MIX",3,2,6,7,353,354,355,356
"997",2,6,15,2,1,4,0,0,2,1,1,567,6,1,"MIX",4,8,358,359,NA,NA,NA,NA
"998",2,6,16,1,1,4,3,2,2,0,1,1217,6,1,"MIX",6,7,360,361,NA,NA,NA,NA
"999",2,6,17,1,1,8,2,7,2,1,0,546,363,0,"MIX",2,1,6,7,362,363,364,365
"1000",2,6,18,1,1,8,4,5,2,1,0,637,368,0,"MIX",7,6,1,8,366,367,368,369
"1001",2,6,19,2,1,8,0,0,2,1,1,901,2,1,"MIX",5,8,7,3,370,371,372,373
"1002",2,6,20,1,1,8,3,6,1,1,1,723,375,0,"MIX",8,4,6,7,374,375,376,377
"1003",2,6,21,2,1,2,0,0,2,1,1,570,3,1,"MIX",5,378,NA,NA,NA,NA,NA,NA
"1004",2,6,22,2,1,2,0,0,1,0,1,999,3,1,"MIX",3,379,NA,NA,NA,NA,NA,NA
"1005",2,6,23,2,1,4,0,0,1,1,0,576,14,1,"MIX",4,2,380,381,NA,NA,NA,NA
"1006",2,6,24,1,1,4,2,3,1,1,1,1776,383,0,"MIX",1,7,382,383,NA,NA,NA,NA
"1007",2,7,1,1,1,8,4,5,1,0,0,645,386,0,"MIX",5,6,7,8,384,385,386,387
"1008",2,7,2,1,1,8,6,3,2,1,0,741,5,1,"MIX",4,5,8,1,388,389,390,391
"1009",2,7,3,2,1,8,0,0,1,1,0,656,396,0,"MIX",5,8,1,4,392,393,394,395
"1010",2,7,4,2,1,2,0,0,2,1,1,913,7,1,"MIX",6,397,NA,NA,NA,NA,NA,NA
"1011",2,7,5,2,1,2,0,0,1,1,0,455,399,0,"MIX",1,398,NA,NA,NA,NA,NA,NA
"1012",2,7,6,1,1,4,2,3,1,1,1,1628,1,1,"MIX",4,1,400,401,NA,NA,NA,NA
"1013",2,7,7,2,1,8,0,0,2,1,1,987,406,0,"MIX",5,7,8,4,402,403,404,405
"1014",2,7,8,2,1,2,0,0,1,0,1,768,4,1,"MIX",8,407,NA,NA,NA,NA,NA,NA
"1015",2,7,9,2,1,8,0,0,1,0,1,944,3,1,"MIX",6,7,2,1,408,409,410,411
"1016",2,7,10,2,1,8,0,0,2,1,1,666,416,0,"MIX",4,1,7,8,412,413,414,415
"1017",2,7,11,2,1,4,0,0,1,1,0,855,419,0,"MIX",4,1,417,418,NA,NA,NA,NA
"1018",2,7,12,2,1,8,0,0,1,0,1,727,8,1,"MIX",2,4,6,7,420,421,422,423
"1019",2,7,13,2,1,2,0,0,1,1,0,622,14,1,"MIX",1,424,NA,NA,NA,NA,NA,NA
"1020",2,7,14,2,1,4,0,0,2,1,1,1221,427,0,"MIX",2,3,425,426,NA,NA,NA,NA
"1021",2,7,15,1,1,4,1,4,1,1,1,1141,428,0,"MIX",1,4,428,429,NA,NA,NA,NA
"1022",2,7,16,2,1,8,0,0,1,1,0,1143,16,1,"MIX",2,6,8,7,430,431,432,433
"1023",2,7,17,2,1,8,0,0,1,1,0,1027,438,0,"MIX",4,1,2,5,434,435,436,437
"1024",2,7,18,2,1,4,0,0,1,1,0,955,441,0,"MIX",2,5,439,440,NA,NA,NA,NA
"1025",2,7,19,2,1,2,0,0,2,1,1,969,6,1,"MIX",7,442,NA,NA,NA,NA,NA,NA
"1026",2,7,20,1,1,8,5,4,2,0,1,1790,443,0,"MIX",6,7,8,2,443,444,445,446
"1027",2,7,21,2,1,2,0,0,2,0,0,2089,448,0,"MIX",8,447,NA,NA,NA,NA,NA,NA
"1028",2,7,22,1,1,2,1,2,1,1,1,986,4,1,"MIX",4,449,NA,NA,NA,NA,NA,NA
"1029",2,7,23,2,1,8,0,0,1,1,0,1059,454,0,"MIX",5,1,6,3,450,451,452,453
"1030",2,7,24,2,1,4,0,0,1,1,0,937,457,0,"MIX",5,6,455,456,NA,NA,NA,NA
"1031",2,8,1,2,1,2,0,0,2,1,1,863,5,1,"MIX",2,458,NA,NA,NA,NA,NA,NA
"1032",2,8,2,1,1,8,3,6,2,1,0,686,461,0,"MIX",5,4,3,2,459,460,461,462
"1033",2,8,3,1,1,2,2,1,2,0,1,550,463,0,"MIX",6,463,NA,NA,NA,NA,NA,NA
"1034",2,8,4,1,1,8,7,2,2,1,0,466,467,0,"MIX",5,7,4,8,464,465,466,467
"1035",2,8,5,2,1,8,0,0,2,1,1,841,472,0,"MIX",5,8,1,2,468,469,470,471
"1036",2,8,6,2,1,8,0,0,2,1,1,735,2,1,"MIX",2,8,7,1,473,474,475,476
"1037",2,8,7,2,1,4,0,0,1,1,0,930,479,0,"MIX",8,2,477,478,NA,NA,NA,NA
"1038",2,8,8,2,1,8,0,0,1,1,0,855,484,0,"MIX",2,3,6,1,480,481,482,483
"1039",2,8,9,2,1,2,0,0,1,1,0,704,13,1,"MIX",6,485,NA,NA,NA,NA,NA,NA
"1040",2,8,10,2,1,2,0,0,2,1,1,1111,487,0,"MIX",3,486,NA,NA,NA,NA,NA,NA
"1041",2,8,11,2,1,4,0,0,1,1,0,1172,12,1,"MIX",1,2,488,489,NA,NA,NA,NA
"1042",2,8,12,2,1,8,0,0,1,1,0,1071,494,0,"MIX",2,6,5,7,490,491,492,493
"1043",2,8,13,2,1,2,0,0,2,1,1,752,4,1,"MIX",7,495,NA,NA,NA,NA,NA,NA
"1044",2,8,14,2,1,4,0,0,1,1,0,1154,9,1,"MIX",2,1,496,497,NA,NA,NA,NA
"1045",2,8,15,2,1,8,0,0,1,1,0,702,502,0,"MIX",3,1,7,8,498,499,500,501
"1046",2,8,16,2,1,2,0,0,1,1,0,1269,12,1,"MIX",6,503,NA,NA,NA,NA,NA,NA
"1047",2,8,17,2,1,8,0,0,1,1,0,1092,14,1,"MIX",6,2,7,5,504,505,506,507
"1048",2,8,18,2,1,4,0,0,2,1,1,992,8,1,"MIX",1,2,508,509,NA,NA,NA,NA
"1049",2,8,19,2,1,4,0,0,2,1,1,817,6,1,"MIX",2,5,510,511,NA,NA,NA,NA
"1050",2,8,20,2,1,2,0,0,2,1,1,716,1,1,"MIX",8,512,NA,NA,NA,NA,NA,NA
"1051",2,8,21,1,1,4,3,2,1,1,1,871,513,0,"MIX",6,7,513,514,NA,NA,NA,NA
"1052",2,8,22,1,1,2,1,2,2,1,0,944,5,1,"MIX",5,515,NA,NA,NA,NA,NA,NA
"1053",2,8,23,2,1,4,0,0,2,1,1,953,518,0,"MIX",2,8,516,517,NA,NA,NA,NA
"1054",2,8,24,1,1,8,1,8,1,1,1,1061,1,1,"MIX",1,4,7,3,519,520,521,522
"1055",2,9,1,1,1,4,3,2,2,1,0,910,523,0,"MIX",5,8,523,524,NA,NA,NA,NA
"1056",2,9,2,2,1,4,0,0,1,1,0,706,527,0,"MIX",1,8,525,526,NA,NA,NA,NA
"1057",2,9,3,1,1,8,5,4,2,1,0,646,3,1,"MIX",6,4,3,8,528,529,530,531
"1058",2,9,4,2,1,8,0,0,2,1,1,1503,536,0,"MIX",5,1,6,2,532,533,534,535
"1059",2,9,5,2,1,2,0,0,1,1,0,1135,12,1,"MIX",5,537,NA,NA,NA,NA,NA,NA
"1060",2,9,6,2,1,8,0,0,2,0,0,1139,9,1,"MIX",1,8,6,4,538,539,540,541
"1061",2,9,7,1,1,2,1,2,2,1,0,570,542,0,"MIX",2,542,NA,NA,NA,NA,NA,NA
"1062",2,9,8,1,1,8,8,1,1,1,1,900,5,1,"MIX",5,3,2,6,543,544,545,546
"1063",2,9,9,2,1,8,0,0,2,1,1,627,551,0,"MIX",1,8,3,2,547,548,549,550
"1064",2,9,10,2,1,2,0,0,1,1,0,1053,15,1,"MIX",1,552,NA,NA,NA,NA,NA,NA
"1065",2,9,11,2,1,4,0,0,1,1,0,908,16,1,"MIX",6,1,553,554,NA,NA,NA,NA
"1066",2,9,12,1,1,4,2,3,1,1,1,994,6,1,"MIX",6,5,555,556,NA,NA,NA,NA
"1067",2,9,13,1,1,2,2,1,2,1,0,910,557,0,"MIX",4,557,NA,NA,NA,NA,NA,NA
"1068",2,9,14,1,1,4,3,2,1,1,1,891,558,0,"MIX",4,8,558,559,NA,NA,NA,NA
"1069",2,9,15,1,1,8,1,8,2,1,0,905,562,0,"MIX",6,4,1,7,560,561,562,563
"1070",2,9,16,2,1,4,0,0,1,0,1,686,7,1,"MIX",3,6,564,565,NA,NA,NA,NA
"1071",2,9,17,2,1,2,0,0,2,1,1,878,567,0,"MIX",5,566,NA,NA,NA,NA,NA,NA
"1072",2,9,18,1,1,4,1,4,2,1,0,812,4,1,"MIX",3,4,568,569,NA,NA,NA,NA
"1073",2,9,19,1,1,8,2,7,2,1,0,1115,6,1,"MIX",8,6,3,1,570,571,572,573
"1074",2,9,20,1,1,2,2,1,1,1,1,930,5,1,"MIX",5,574,NA,NA,NA,NA,NA,NA
"1075",2,9,21,1,1,2,1,2,1,1,1,1745,575,0,"MIX",1,575,NA,NA,NA,NA,NA,NA
"1076",2,9,22,2,1,2,0,0,1,1,0,1175,16,1,"MIX",2,576,NA,NA,NA,NA,NA,NA
"1077",2,9,23,1,1,2,2,1,1,0,0,404,1,1,"MIX",1,577,NA,NA,NA,NA,NA,NA
"1078",2,9,24,2,1,2,0,0,2,1,1,1071,579,0,"MIX",3,578,NA,NA,NA,NA,NA,NA
"1079",3,1,1,2,1,8,0,0,1,0,1,5244,21,0,"MIX",5,6,8,2,17,18,19,20
"1080",3,1,2,1,1,2,1,2,2,1,0,2123,22,0,"MIX",7,22,NA,NA,NA,NA,NA,NA
"1081",3,1,3,2,1,8,0,0,1,1,0,929,12,1,"MIX",8,1,3,2,23,24,25,26
"1082",3,1,4,1,1,8,8,1,1,1,1,1339,4,1,"MIX",5,4,1,7,27,28,29,30
"1083",3,1,5,2,1,4,0,0,2,1,1,1325,8,1,"MIX",4,8,31,32,NA,NA,NA,NA
"1084",3,1,6,2,1,8,0,0,2,1,1,823,37,0,"MIX",8,5,7,3,33,34,35,36
"1085",3,1,7,2,1,2,0,0,1,1,0,792,16,1,"MIX",5,38,NA,NA,NA,NA,NA,NA
"1086",3,1,8,2,1,8,0,0,1,1,0,569,43,0,"MIX",7,6,5,1,39,40,41,42
"1087",3,1,9,1,1,2,1,2,1,1,1,902,3,1,"MIX",3,44,NA,NA,NA,NA,NA,NA
"1088",3,1,10,1,1,4,3,2,1,1,1,634,46,0,"MIX",4,6,45,46,NA,NA,NA,NA
"1089",3,1,11,1,1,2,2,1,1,1,1,420,2,1,"MIX",2,47,NA,NA,NA,NA,NA,NA
"1090",3,1,12,2,1,4,0,0,2,1,1,539,8,1,"MIX",3,8,48,49,NA,NA,NA,NA
"1091",3,1,13,2,1,4,0,0,1,1,0,957,52,0,"MIX",4,3,50,51,NA,NA,NA,NA
"1092",3,1,14,2,1,2,0,0,2,1,1,586,6,1,"MIX",6,53,NA,NA,NA,NA,NA,NA
"1093",3,1,15,1,1,4,1,4,2,1,0,956,1,1,"MIX",6,1,54,55,NA,NA,NA,NA
"1094",3,1,16,2,1,8,0,0,1,1,0,567,15,1,"MIX",2,7,1,6,56,57,58,59
"1095",3,1,17,1,1,4,3,2,1,1,1,521,4,1,"MIX",7,4,60,61,NA,NA,NA,NA
"1096",3,1,18,2,1,4,0,0,1,1,0,684,64,0,"MIX",1,7,62,63,NA,NA,NA,NA
"1097",3,1,19,2,1,2,0,0,1,1,0,565,9,1,"MIX",3,65,NA,NA,NA,NA,NA,NA
"1098",3,1,20,2,1,2,0,0,1,1,0,561,67,0,"MIX",5,66,NA,NA,NA,NA,NA,NA
"1099",3,1,21,2,1,2,0,0,1,1,0,558,11,1,"MIX",7,68,NA,NA,NA,NA,NA,NA
"1100",3,1,22,1,1,4,4,1,1,1,1,399,4,1,"MIX",4,7,69,70,NA,NA,NA,NA
"1101",3,1,23,1,1,4,4,1,1,1,1,391,71,0,"MIX",7,1,71,72,NA,NA,NA,NA
"1102",3,1,24,2,1,4,0,0,2,1,1,544,75,0,"MIX",5,4,73,74,NA,NA,NA,NA
"1103",3,2,1,2,1,4,0,0,1,1,0,701,11,1,"MIX",5,2,76,77,NA,NA,NA,NA
"1104",3,2,2,1,1,2,1,2,2,1,0,836,78,0,"MIX",1,78,NA,NA,NA,NA,NA,NA
"1105",3,2,3,2,1,4,0,0,2,1,1,522,81,0,"MIX",4,6,79,80,NA,NA,NA,NA
"1106",3,2,4,2,1,8,0,0,1,1,0,519,86,0,"MIX",3,8,6,4,82,83,84,85
"1107",3,2,5,2,1,4,0,0,1,1,0,458,11,1,"MIX",1,6,87,88,NA,NA,NA,NA
"1108",3,2,6,1,1,8,1,8,1,1,1,649,90,0,"MIX",7,1,5,4,89,90,91,92
"1109",3,2,7,1,1,8,5,4,1,1,1,593,93,0,"MIX",4,6,2,7,93,94,95,96
"1110",3,2,8,1,1,4,2,3,1,1,1,513,8,1,"MIX",1,8,97,98,NA,NA,NA,NA
"1111",3,2,9,1,1,4,2,3,2,1,0,852,7,1,"MIX",8,7,99,100,NA,NA,NA,NA
"1112",3,2,10,2,1,2,0,0,1,1,0,470,14,1,"MIX",1,101,NA,NA,NA,NA,NA,NA
"1113",3,2,11,1,1,2,2,1,1,1,1,407,7,1,"MIX",7,102,NA,NA,NA,NA,NA,NA
"1114",3,2,12,1,1,4,4,1,2,1,0,526,103,0,"MIX",2,8,103,104,NA,NA,NA,NA
"1115",3,2,13,2,1,8,0,0,1,1,0,843,11,1,"MIX",2,3,4,8,105,106,107,108
"1116",3,2,14,2,1,2,0,0,2,0,0,1565,11,1,"MIX",5,109,NA,NA,NA,NA,NA,NA
"1117",3,2,15,2,1,4,0,0,1,1,0,502,16,1,"MIX",4,5,110,111,NA,NA,NA,NA
"1118",3,2,16,2,1,4,0,0,2,1,1,554,8,1,"MIX",6,7,112,113,NA,NA,NA,NA
"1119",3,2,17,2,1,8,0,0,1,1,0,630,13,1,"MIX",2,6,5,3,114,115,116,117
"1120",3,2,18,1,1,2,1,2,2,1,0,1089,118,0,"MIX",1,118,NA,NA,NA,NA,NA,NA
"1121",3,2,19,1,1,2,2,1,2,1,0,409,119,0,"MIX",4,119,NA,NA,NA,NA,NA,NA
"1122",3,2,20,1,1,2,2,1,2,1,0,876,2,1,"MIX",2,120,NA,NA,NA,NA,NA,NA
"1123",3,2,21,1,1,8,4,5,2,1,0,892,8,1,"MIX",8,2,5,7,121,122,123,124
"1124",3,2,22,1,1,2,1,2,1,1,1,604,6,1,"MIX",6,125,NA,NA,NA,NA,NA,NA
"1125",3,2,23,2,1,2,0,0,2,1,1,758,127,0,"MIX",7,126,NA,NA,NA,NA,NA,NA
"1126",3,2,24,2,1,4,0,0,2,0,0,752,130,0,"MIX",1,8,128,129,NA,NA,NA,NA
"1127",3,3,1,2,1,2,0,0,1,1,0,606,132,0,"MIX",4,131,NA,NA,NA,NA,NA,NA
"1128",3,3,2,2,1,2,0,0,2,1,1,553,134,0,"MIX",3,133,NA,NA,NA,NA,NA,NA
"1129",3,3,3,2,1,4,0,0,2,1,1,554,137,0,"MIX",5,1,135,136,NA,NA,NA,NA
"1130",3,3,4,1,1,2,1,2,1,1,1,839,6,1,"MIX",6,138,NA,NA,NA,NA,NA,NA
"1131",3,3,5,2,1,2,0,0,1,1,0,617,140,0,"MIX",5,139,NA,NA,NA,NA,NA,NA
"1132",3,3,6,2,1,4,0,0,2,1,1,984,2,1,"MIX",2,8,141,142,NA,NA,NA,NA
"1133",3,3,7,2,1,2,0,0,1,1,0,436,144,0,"MIX",8,143,NA,NA,NA,NA,NA,NA
"1134",3,3,8,2,1,2,0,0,2,1,1,598,146,0,"MIX",4,145,NA,NA,NA,NA,NA,NA
"1135",3,3,9,1,1,4,4,1,1,0,0,838,1,1,"MIX",1,5,147,148,NA,NA,NA,NA
"1136",3,3,10,1,1,8,1,8,1,1,1,598,149,0,"MIX",4,6,8,1,149,150,151,152
"1137",3,3,11,1,1,2,1,2,2,1,0,977,4,1,"MIX",4,153,NA,NA,NA,NA,NA,NA
"1138",3,3,12,2,1,4,0,0,1,1,0,3442,15,1,"MIX",8,6,154,155,NA,NA,NA,NA
"1139",3,3,13,1,1,4,2,3,1,1,1,529,4,1,"MIX",5,4,156,157,NA,NA,NA,NA
"1140",3,3,14,2,1,2,0,0,1,1,0,624,159,0,"MIX",7,158,NA,NA,NA,NA,NA,NA
"1141",3,3,15,1,1,8,8,1,1,1,1,1322,161,0,"MIX",8,1,2,6,160,161,162,163
"1142",3,3,16,1,1,2,1,2,2,1,0,3177,164,0,"MIX",3,164,NA,NA,NA,NA,NA,NA
"1143",3,3,17,2,1,2,0,0,2,1,1,685,166,0,"MIX",1,165,NA,NA,NA,NA,NA,NA
"1144",3,3,18,1,1,4,4,1,2,1,0,2330,4,1,"MIX",2,4,167,168,NA,NA,NA,NA
"1145",3,3,19,1,1,4,4,1,2,1,0,2373,3,1,"MIX",3,5,169,170,NA,NA,NA,NA
"1146",3,3,20,2,1,8,0,0,2,0,0,855,175,0,"MIX",5,3,4,2,171,172,173,174
"1147",3,3,21,2,1,8,0,0,1,1,0,469,180,0,"MIX",6,5,1,8,176,177,178,179
"1148",3,3,22,2,1,2,0,0,2,1,1,870,182,0,"MIX",8,181,NA,NA,NA,NA,NA,NA
"1149",3,3,23,1,1,8,6,3,2,1,0,516,3,1,"MIX",1,3,7,4,183,184,185,186
"1150",3,3,24,2,1,4,0,0,1,1,0,582,189,0,"MIX",4,7,187,188,NA,NA,NA,NA
"1151",3,4,1,1,1,8,2,7,2,0,1,554,193,0,"MIX",7,5,4,6,190,191,192,193
"1152",3,4,2,2,1,8,0,0,1,1,0,1655,14,1,"MIX",1,2,4,8,194,195,196,197
"1153",3,4,3,1,1,4,4,1,2,0,1,6397,7,1,"MIX",8,7,198,199,NA,NA,NA,NA
"1154",3,4,4,1,1,2,1,2,1,1,1,881,5,1,"MIX",5,200,NA,NA,NA,NA,NA,NA
"1155",3,4,5,2,1,2,0,0,2,1,1,849,202,0,"MIX",2,201,NA,NA,NA,NA,NA,NA
"1156",3,4,6,1,1,2,2,1,2,1,0,483,1,1,"MIX",1,203,NA,NA,NA,NA,NA,NA
"1157",3,4,7,1,1,4,2,3,2,1,0,648,205,0,"MIX",8,7,204,205,NA,NA,NA,NA
"1158",3,4,8,1,1,4,2,3,2,1,0,454,206,0,"MIX",2,1,206,207,NA,NA,NA,NA
"1159",3,4,9,2,1,2,0,0,2,0,0,4647,14,1,"MIX",2,208,NA,NA,NA,NA,NA,NA
"1160",3,4,10,1,1,4,4,1,2,1,0,374,5,1,"MIX",5,1,209,210,NA,NA,NA,NA
"1161",3,4,11,1,1,2,1,2,1,1,1,730,7,1,"MIX",7,211,NA,NA,NA,NA,NA,NA
"1162",3,4,12,1,1,8,4,5,2,1,0,4111,4,1,"MIX",4,6,3,7,212,213,214,215
"1163",3,4,13,1,1,4,2,3,2,1,0,642,6,1,"MIX",1,6,216,217,NA,NA,NA,NA
"1164",3,4,14,2,1,2,0,0,1,1,0,508,219,0,"MIX",8,218,NA,NA,NA,NA,NA,NA
"1165",3,4,15,2,1,4,0,0,2,1,1,880,3,1,"MIX",2,5,220,221,NA,NA,NA,NA
"1166",3,4,16,2,1,8,0,0,1,1,0,1166,12,1,"MIX",5,1,3,6,222,223,224,225
"1167",3,4,17,2,1,2,0,0,2,1,1,3073,227,0,"MIX",7,226,NA,NA,NA,NA,NA,NA
"1168",3,4,18,2,1,4,0,0,1,1,0,4495,10,1,"MIX",1,8,228,229,NA,NA,NA,NA
"1169",3,4,19,1,1,8,7,2,2,1,0,477,1,1,"MIX",1,2,3,4,230,231,232,233
"1170",3,4,20,2,1,8,0,0,1,1,0,507,9,1,"MIX",5,1,3,6,234,235,236,237
"1171",3,4,21,2,1,8,0,0,1,1,0,568,242,0,"MIX",8,1,3,5,238,239,240,241
"1172",3,4,22,1,1,4,4,1,2,1,0,474,244,0,"MIX",3,2,243,244,NA,NA,NA,NA
"1173",3,4,23,1,1,2,1,2,1,1,1,523,8,1,"MIX",8,245,NA,NA,NA,NA,NA,NA
"1174",3,4,24,1,1,8,2,7,1,1,1,4504,5,1,"MIX",3,4,5,7,246,247,248,249
"1175",3,5,1,1,1,4,4,1,2,1,0,323,251,0,"MIX",7,8,250,251,NA,NA,NA,NA
"1176",3,5,2,1,1,2,2,1,1,1,1,4682,7,1,"MIX",7,252,NA,NA,NA,NA,NA,NA
"1177",3,5,3,2,1,8,0,0,2,1,1,1344,7,1,"MIX",2,4,3,6,253,254,255,256
"1178",3,5,4,1,1,8,3,6,2,1,0,524,258,0,"MIX",2,8,1,6,257,258,259,260
"1179",3,5,5,2,1,4,0,0,2,1,1,575,263,0,"MIX",8,2,261,262,NA,NA,NA,NA
"1180",3,5,6,1,1,8,7,2,2,1,0,3257,3,1,"MIX",2,6,3,1,264,265,266,267
"1181",3,5,7,2,1,2,0,0,1,0,1,683,2,1,"MIX",4,268,NA,NA,NA,NA,NA,NA
"1182",3,5,8,1,1,4,2,3,2,1,0,745,270,0,"MIX",3,7,269,270,NA,NA,NA,NA
"1183",3,5,9,2,1,4,0,0,1,1,0,2420,15,1,"MIX",4,6,271,272,NA,NA,NA,NA
"1184",3,5,10,1,1,8,5,4,1,1,1,869,6,1,"MIX",4,1,5,6,273,274,275,276
"1185",3,5,11,1,1,4,3,2,2,1,0,731,8,1,"MIX",4,8,277,278,NA,NA,NA,NA
"1186",3,5,12,2,1,8,0,0,1,1,0,529,11,1,"MIX",8,1,7,6,279,280,281,282
"1187",3,5,13,2,1,2,0,0,2,1,1,527,284,0,"MIX",3,283,NA,NA,NA,NA,NA,NA
"1188",3,5,14,1,1,2,1,2,2,1,0,477,2,1,"MIX",2,285,NA,NA,NA,NA,NA,NA
"1189",3,5,15,1,1,4,4,1,2,1,0,434,287,0,"MIX",4,1,286,287,NA,NA,NA,NA
"1190",3,5,16,2,1,8,0,0,1,0,1,1299,4,1,"MIX",4,5,7,1,288,289,290,291
"1191",3,5,17,1,1,2,1,2,2,1,0,930,3,1,"MIX",3,292,NA,NA,NA,NA,NA,NA
"1192",3,5,18,2,1,2,0,0,1,1,0,496,14,1,"MIX",4,293,NA,NA,NA,NA,NA,NA
"1193",3,5,19,2,1,2,0,0,1,1,0,608,15,1,"MIX",6,294,NA,NA,NA,NA,NA,NA
"1194",3,5,20,2,1,2,0,0,1,1,0,9436,9,1,"MIX",8,295,NA,NA,NA,NA,NA,NA
"1195",3,5,21,2,1,2,0,0,2,1,1,422,2,1,"MIX",6,296,NA,NA,NA,NA,NA,NA
"1196",3,5,22,1,1,8,2,7,2,1,0,2342,297,0,"MIX",6,8,7,5,297,298,299,300
"1197",3,5,23,1,1,4,2,3,2,1,0,576,302,0,"MIX",1,3,301,302,NA,NA,NA,NA
"1198",3,5,24,2,1,8,0,0,1,1,0,3034,307,0,"MIX",6,7,1,2,303,304,305,306
"1199",3,6,1,2,1,2,0,0,2,1,1,508,309,0,"MIX",1,308,NA,NA,NA,NA,NA,NA
"1200",3,6,2,2,1,8,0,0,1,1,0,712,314,0,"MIX",2,5,8,3,310,311,312,313
"1201",3,6,3,1,1,4,1,4,1,1,1,1029,315,0,"MIX",5,8,315,316,NA,NA,NA,NA
"1202",3,6,4,2,1,2,0,0,1,1,0,511,318,0,"MIX",8,317,NA,NA,NA,NA,NA,NA
"1203",3,6,5,2,1,4,0,0,2,1,1,418,321,0,"MIX",8,3,319,320,NA,NA,NA,NA
"1204",3,6,6,2,1,4,0,0,1,1,0,3561,15,1,"MIX",8,4,322,323,NA,NA,NA,NA
"1205",3,6,7,1,1,2,2,1,2,1,0,445,324,0,"MIX",4,324,NA,NA,NA,NA,NA,NA
"1206",3,6,8,2,1,8,0,0,1,1,0,812,15,1,"MIX",5,6,2,3,325,326,327,328
"1207",3,6,9,1,1,2,1,2,2,1,0,3248,5,1,"MIX",5,329,NA,NA,NA,NA,NA,NA
"1208",3,6,10,2,1,2,0,0,1,1,0,418,14,1,"MIX",3,330,NA,NA,NA,NA,NA,NA
"1209",3,6,11,2,1,2,0,0,2,1,1,596,5,1,"MIX",8,331,NA,NA,NA,NA,NA,NA
"1210",3,6,12,2,1,4,0,0,2,1,1,516,8,1,"MIX",5,6,332,333,NA,NA,NA,NA
"1211",3,6,13,1,1,4,3,2,2,1,0,2152,335,0,"MIX",7,5,334,335,NA,NA,NA,NA
"1212",3,6,14,1,1,4,2,3,2,1,0,474,337,0,"MIX",5,3,336,337,NA,NA,NA,NA
"1213",3,6,15,2,1,2,0,0,1,1,0,953,339,0,"MIX",4,338,NA,NA,NA,NA,NA,NA
"1214",3,6,16,2,1,2,0,0,2,1,1,438,341,0,"MIX",5,340,NA,NA,NA,NA,NA,NA
"1215",3,6,17,2,1,2,0,0,2,0,0,2199,14,1,"MIX",1,342,NA,NA,NA,NA,NA,NA
"1216",3,6,18,1,1,4,2,3,2,1,0,1879,343,0,"MIX",2,8,343,344,NA,NA,NA,NA
"1217",3,6,19,2,1,8,0,0,1,1,0,413,9,1,"MIX",8,1,3,7,345,346,347,348
"1218",3,6,20,1,1,8,8,1,2,1,0,367,5,1,"MIX",7,1,2,5,349,350,351,352
"1219",3,6,21,1,1,8,5,4,2,1,0,545,7,1,"MIX",6,2,1,7,353,354,355,356
"1220",3,6,22,1,1,4,1,4,2,0,1,931,357,0,"MIX",6,2,357,358,NA,NA,NA,NA
"1221",3,6,23,2,1,8,0,0,1,1,0,815,363,0,"MIX",7,2,5,6,359,360,361,362
"1222",3,6,24,1,1,8,8,1,1,1,1,529,8,1,"MIX",3,8,1,7,364,365,366,367
"1223",3,7,1,2,1,4,0,0,1,1,0,411,16,1,"MIX",5,6,368,369,NA,NA,NA,NA
"1224",3,7,2,2,1,8,0,0,2,1,1,411,1,1,"MIX",1,5,2,6,370,371,372,373
"1225",3,7,3,1,1,4,2,3,1,1,1,627,374,0,"MIX",6,5,374,375,NA,NA,NA,NA
"1226",3,7,4,1,1,4,2,3,1,1,1,753,8,1,"MIX",8,4,376,377,NA,NA,NA,NA
"1227",3,7,5,2,1,8,0,0,1,1,0,819,13,1,"MIX",1,8,4,5,378,379,380,381
"1228",3,7,6,1,1,8,4,5,1,0,0,468,383,0,"MIX",5,7,1,8,382,383,384,385
"1229",3,7,7,1,1,8,7,2,2,1,0,739,388,0,"MIX",5,4,6,2,386,387,388,389
"1230",3,7,8,1,1,4,4,1,1,1,1,3998,391,0,"MIX",5,6,390,391,NA,NA,NA,NA
"1231",3,7,9,1,1,2,1,2,1,1,1,657,6,1,"MIX",6,392,NA,NA,NA,NA,NA,NA
"1232",3,7,10,2,1,8,0,0,1,1,0,937,397,0,"MIX",5,3,8,2,393,394,395,396
"1233",3,7,11,2,1,4,0,0,1,1,0,636,16,1,"MIX",3,7,398,399,NA,NA,NA,NA
"1234",3,7,12,2,1,4,0,0,1,0,1,4329,402,0,"MIX",3,4,400,401,NA,NA,NA,NA
"1235",3,7,13,1,1,4,1,4,1,1,1,518,7,1,"MIX",4,7,403,404,NA,NA,NA,NA
"1236",3,7,14,1,1,4,3,2,2,1,0,536,405,0,"MIX",5,2,405,406,NA,NA,NA,NA
"1237",3,7,15,1,1,2,2,1,1,1,1,2470,407,0,"MIX",2,407,NA,NA,NA,NA,NA,NA
"1238",3,7,16,2,1,2,0,0,2,1,1,487,1,1,"MIX",6,408,NA,NA,NA,NA,NA,NA
"1239",3,7,17,1,1,2,1,2,1,1,1,631,2,1,"MIX",2,409,NA,NA,NA,NA,NA,NA
"1240",3,7,18,1,1,4,2,3,2,1,0,742,7,1,"MIX",7,6,410,411,NA,NA,NA,NA
"1241",3,7,19,1,1,4,2,3,1,0,0,593,413,0,"MIX",6,5,412,413,NA,NA,NA,NA
"1242",3,7,20,2,1,8,0,0,2,1,1,524,1,1,"MIX",4,5,1,3,414,415,416,417
"1243",3,7,21,1,1,4,1,4,1,1,1,511,6,1,"MIX",6,3,418,419,NA,NA,NA,NA
"1244",3,7,22,1,1,4,1,4,2,0,1,867,2,1,"MIX",5,2,420,421,NA,NA,NA,NA
"1245",3,7,23,2,1,8,0,0,2,1,1,770,2,1,"MIX",2,3,8,7,422,423,424,425
"1246",3,7,24,2,1,4,0,0,1,0,1,2106,4,1,"MIX",4,7,426,427,NA,NA,NA,NA
"1247",3,8,1,1,1,4,4,1,2,1,0,525,7,1,"MIX",3,7,428,429,NA,NA,NA,NA
"1248",3,8,2,1,1,8,3,6,1,0,0,1258,432,0,"MIX",7,1,2,6,430,431,432,433
"1249",3,8,3,1,1,2,1,2,1,1,1,556,434,0,"MIX",7,434,NA,NA,NA,NA,NA,NA
"1250",3,8,4,2,1,8,0,0,1,0,1,1558,439,0,"MIX",2,7,3,4,435,436,437,438
"1251",3,8,5,1,1,4,2,3,2,1,0,513,6,1,"MIX",4,6,440,441,NA,NA,NA,NA
"1252",3,8,6,1,1,4,2,3,2,1,0,598,2,1,"MIX",2,1,442,443,NA,NA,NA,NA
"1253",3,8,7,1,1,4,2,3,2,1,0,1254,7,1,"MIX",5,7,444,445,NA,NA,NA,NA
"1254",3,8,8,2,1,2,0,0,2,1,1,968,6,1,"MIX",2,446,NA,NA,NA,NA,NA,NA
"1255",3,8,9,2,1,2,0,0,2,1,1,628,8,1,"MIX",4,447,NA,NA,NA,NA,NA,NA
"1256",3,8,10,1,1,8,1,8,2,1,0,6508,6,1,"MIX",3,2,4,6,448,449,450,451
"1257",3,8,11,2,1,8,0,0,2,1,1,746,456,0,"MIX",3,2,6,4,452,453,454,455
"1258",3,8,12,2,1,8,0,0,2,1,1,1181,461,0,"MIX",6,1,5,2,457,458,459,460
"1259",3,8,13,2,1,8,0,0,1,1,0,480,14,1,"MIX",2,7,8,3,462,463,464,465
"1260",3,8,14,1,1,8,6,3,1,1,1,718,3,1,"MIX",5,7,2,3,466,467,468,469
"1261",3,8,15,2,1,2,0,0,1,1,0,436,471,0,"MIX",7,470,NA,NA,NA,NA,NA,NA
"1262",3,8,16,1,1,4,4,1,1,1,1,4251,472,0,"MIX",7,2,472,473,NA,NA,NA,NA
"1263",3,8,17,1,1,4,1,4,1,1,1,649,475,0,"MIX",1,7,474,475,NA,NA,NA,NA
"1264",3,8,18,1,1,4,1,4,1,0,0,5399,477,0,"MIX",3,7,476,477,NA,NA,NA,NA
"1265",3,8,19,2,1,8,0,0,2,0,0,2465,13,1,"MIX",3,5,8,7,478,479,480,481
"1266",3,8,20,1,1,2,2,1,2,1,0,466,482,0,"MIX",3,482,NA,NA,NA,NA,NA,NA
"1267",3,8,21,1,1,2,1,2,2,1,0,451,483,0,"MIX",5,483,NA,NA,NA,NA,NA,NA
"1268",3,8,22,1,1,4,2,3,1,1,1,745,485,0,"MIX",8,3,484,485,NA,NA,NA,NA
"1269",3,8,23,2,1,8,0,0,1,0,1,542,6,1,"MIX",8,2,4,6,486,487,488,489
"1270",3,8,24,2,1,4,0,0,1,1,0,2097,15,1,"MIX",4,8,490,491,NA,NA,NA,NA
"1271",3,9,1,2,1,2,0,0,2,1,1,493,493,0,"MIX",1,492,NA,NA,NA,NA,NA,NA
"1272",3,9,2,2,1,8,0,0,1,1,0,587,498,0,"MIX",2,3,4,7,494,495,496,497
"1273",3,9,3,1,1,2,2,1,2,0,1,487,1,1,"MIX",1,499,NA,NA,NA,NA,NA,NA
"1274",3,9,4,1,1,4,3,2,2,1,0,588,1,1,"MIX",6,1,500,501,NA,NA,NA,NA
"1275",3,9,5,1,1,2,1,2,2,1,0,600,8,1,"MIX",8,502,NA,NA,NA,NA,NA,NA
"1276",3,9,6,2,1,4,0,0,2,1,1,1336,1,1,"MIX",8,6,503,504,NA,NA,NA,NA
"1277",3,9,7,1,1,8,8,1,2,1,0,436,508,0,"MIX",4,6,5,1,505,506,507,508
"1278",3,9,8,1,1,4,1,4,1,1,1,602,3,1,"MIX",6,3,509,510,NA,NA,NA,NA
"1279",3,9,9,1,1,2,1,2,1,1,1,454,6,1,"MIX",6,511,NA,NA,NA,NA,NA,NA
"1280",3,9,10,1,1,8,6,3,2,1,0,1380,7,1,"MIX",1,2,7,5,512,513,514,515
"1281",3,9,11,2,1,4,0,0,1,1,0,645,518,0,"MIX",2,1,516,517,NA,NA,NA,NA
"1282",3,9,12,1,1,8,5,4,2,0,1,2748,1,1,"MIX",2,5,1,8,519,520,521,522
"1283",3,9,13,1,1,4,1,4,1,1,1,662,4,1,"MIX",2,4,523,524,NA,NA,NA,NA
"1284",3,9,14,2,1,4,0,0,2,1,1,868,5,1,"MIX",8,7,525,526,NA,NA,NA,NA
"1285",3,9,15,1,1,2,1,2,1,1,1,549,8,1,"MIX",8,527,NA,NA,NA,NA,NA,NA
"1286",3,9,16,2,1,8,0,0,2,1,1,1650,1,1,"MIX",8,2,4,7,528,529,530,531
"1287",3,9,17,1,1,8,7,2,1,1,1,721,534,0,"MIX",3,2,1,8,532,533,534,535
"1288",3,9,18,2,1,2,0,0,1,1,0,551,15,1,"MIX",5,536,NA,NA,NA,NA,NA,NA
"1289",3,9,19,1,1,2,1,2,2,1,0,628,537,0,"MIX",6,537,NA,NA,NA,NA,NA,NA
"1290",3,9,20,2,1,4,0,0,1,1,0,804,540,0,"MIX",7,2,538,539,NA,NA,NA,NA
"1291",3,9,21,2,1,4,0,0,1,1,0,540,543,0,"MIX",1,4,541,542,NA,NA,NA,NA
"1292",3,9,22,1,1,8,6,3,2,1,0,696,544,0,"MIX",5,1,6,8,544,545,546,547
"1293",3,9,23,2,1,4,0,0,2,1,1,1716,2,1,"MIX",3,7,548,549,NA,NA,NA,NA
"1294",3,9,24,2,1,8,0,0,1,1,0,657,12,1,"MIX",3,8,6,2,550,551,552,553
"1295",4,1,1,1,1,2,2,1,2,1,0,2487,17,0,"MIX",2,17,NA,NA,NA,NA,NA,NA
"1296",4,1,2,2,1,8,0,0,1,1,0,2881,22,0,"MIX",2,7,1,3,18,19,20,21
"1297",4,1,3,1,1,4,1,4,1,1,1,1332,8,1,"MIX",8,2,23,24,NA,NA,NA,NA
"1298",4,1,4,1,1,2,2,1,1,1,1,867,7,1,"MIX",7,25,NA,NA,NA,NA,NA,NA
"1299",4,1,5,1,1,2,1,2,2,1,0,884,6,1,"MIX",6,26,NA,NA,NA,NA,NA,NA
"1300",4,1,6,1,1,2,1,2,1,1,1,627,2,1,"MIX",2,27,NA,NA,NA,NA,NA,NA
"1301",4,1,7,1,1,4,2,3,2,1,0,817,6,1,"MIX",6,2,28,29,NA,NA,NA,NA
"1302",4,1,8,1,1,4,3,2,1,1,1,584,30,0,"MIX",3,4,30,31,NA,NA,NA,NA
"1303",4,1,9,2,1,4,0,0,1,1,0,968,12,1,"MIX",4,3,32,33,NA,NA,NA,NA
"1304",4,1,10,2,1,8,0,0,1,0,1,2382,38,0,"MIX",3,7,1,5,34,35,36,37
"1305",4,1,11,1,1,4,2,3,2,1,0,934,39,0,"MIX",7,1,39,40,NA,NA,NA,NA
"1306",4,1,12,1,1,4,3,2,2,1,0,585,41,0,"MIX",6,3,41,42,NA,NA,NA,NA
"1307",4,1,13,1,1,8,7,2,1,1,1,691,1,1,"MIX",6,8,3,1,43,44,45,46
"1308",4,1,14,2,1,2,0,0,1,1,0,715,48,0,"MIX",4,47,NA,NA,NA,NA,NA,NA
"1309",4,1,15,2,1,8,0,0,1,1,0,668,53,0,"MIX",2,1,6,8,49,50,51,52
"1310",4,1,16,1,1,8,1,8,2,1,0,610,3,1,"MIX",5,3,8,6,54,55,56,57
"1311",4,1,17,2,1,4,0,0,1,0,1,577,4,1,"MIX",2,3,58,59,NA,NA,NA,NA
"1312",4,1,18,2,1,8,0,0,2,1,1,760,64,0,"MIX",1,2,4,3,60,61,62,63
"1313",4,1,19,2,1,8,0,0,1,1,0,777,15,1,"MIX",2,7,3,5,65,66,67,68
"1314",4,1,20,1,1,8,8,1,1,1,1,682,8,1,"MIX",8,3,1,4,69,70,71,72
"1315",4,1,21,1,1,4,1,4,1,1,1,952,4,1,"MIX",6,4,73,74,NA,NA,NA,NA
"1316",4,1,22,1,1,2,1,2,2,1,0,437,3,1,"MIX",3,75,NA,NA,NA,NA,NA,NA
"1317",4,1,23,2,1,8,0,0,1,1,0,915,15,1,"MIX",6,7,8,5,76,77,78,79
"1318",4,1,24,2,1,4,0,0,1,1,0,612,82,0,"MIX",5,6,80,81,NA,NA,NA,NA
"1319",4,2,1,1,1,4,4,1,2,1,0,476,3,1,"MIX",3,7,83,84,NA,NA,NA,NA
"1320",4,2,2,1,1,4,2,3,2,0,1,640,85,0,"MIX",1,2,85,86,NA,NA,NA,NA
"1321",4,2,3,2,1,4,0,0,2,1,1,1120,7,1,"MIX",6,7,87,88,NA,NA,NA,NA
"1322",4,2,4,2,1,4,0,0,2,1,1,1067,8,1,"MIX",5,7,89,90,NA,NA,NA,NA
"1323",4,2,5,2,1,8,0,0,2,0,0,2036,11,1,"MIX",3,2,5,8,91,92,93,94
"1324",4,2,6,2,1,4,0,0,2,1,1,1513,7,1,"MIX",7,1,95,96,NA,NA,NA,NA
"1325",4,2,7,1,1,2,1,2,1,1,1,655,1,1,"MIX",1,97,NA,NA,NA,NA,NA,NA
"1326",4,2,8,2,1,2,0,0,2,1,1,825,99,0,"MIX",2,98,NA,NA,NA,NA,NA,NA
"1327",4,2,9,1,1,4,3,2,1,1,1,656,6,1,"MIX",5,6,100,101,NA,NA,NA,NA
"1328",4,2,10,2,1,4,0,0,2,1,1,716,104,0,"MIX",7,5,102,103,NA,NA,NA,NA
"1329",4,2,11,1,1,8,6,3,2,1,0,591,7,1,"MIX",5,7,3,2,105,106,107,108
"1330",4,2,12,2,1,4,0,0,2,1,1,640,111,0,"MIX",7,8,109,110,NA,NA,NA,NA
"1331",4,2,13,2,1,2,0,0,1,1,0,585,10,1,"MIX",1,112,NA,NA,NA,NA,NA,NA
"1332",4,2,14,2,1,8,0,0,2,1,1,1300,3,1,"MIX",8,4,3,2,113,114,115,116
"1333",4,2,15,2,1,2,0,0,1,1,0,849,118,0,"MIX",8,117,NA,NA,NA,NA,NA,NA
"1334",4,2,16,1,1,2,2,1,2,1,0,545,7,1,"MIX",7,119,NA,NA,NA,NA,NA,NA
"1335",4,2,17,1,1,8,7,2,2,1,0,734,6,1,"MIX",7,8,2,6,120,121,122,123
"1336",4,2,18,1,1,4,2,3,1,1,1,632,8,1,"MIX",7,8,124,125,NA,NA,NA,NA
"1337",4,2,19,2,1,8,0,0,2,1,1,607,130,0,"MIX",5,8,4,2,126,127,128,129
"1338",4,2,20,1,1,8,3,6,2,1,0,516,3,1,"MIX",2,5,6,3,131,132,133,134
"1339",4,2,21,1,1,4,3,2,2,1,0,423,136,0,"MIX",8,7,135,136,NA,NA,NA,NA
"1340",4,2,22,1,1,2,2,1,2,1,0,442,8,1,"MIX",8,137,NA,NA,NA,NA,NA,NA
"1341",4,2,23,1,1,8,5,4,1,1,1,807,139,0,"MIX",3,7,4,6,138,139,140,141
"1342",4,2,24,1,1,4,2,3,1,1,1,495,142,0,"MIX",2,3,142,143,NA,NA,NA,NA
"1343",4,3,1,1,1,2,1,2,1,1,1,401,7,1,"MIX",7,144,NA,NA,NA,NA,NA,NA
"1344",4,3,2,2,1,2,0,0,1,1,0,658,146,0,"MIX",3,145,NA,NA,NA,NA,NA,NA
"1345",4,3,3,1,1,2,2,1,2,1,0,490,147,0,"MIX",1,147,NA,NA,NA,NA,NA,NA
"1346",4,3,4,2,1,4,0,0,2,1,1,589,150,0,"MIX",5,1,148,149,NA,NA,NA,NA
"1347",4,3,5,2,1,8,0,0,1,1,0,904,15,1,"MIX",3,2,8,4,151,152,153,154
"1348",4,3,6,2,1,4,0,0,2,1,1,636,1,1,"MIX",8,5,155,156,NA,NA,NA,NA
"1349",4,3,7,1,1,8,3,6,2,1,0,1572,157,0,"MIX",4,6,8,3,157,158,159,160
"1350",4,3,8,2,1,4,0,0,2,1,1,701,4,1,"MIX",5,6,161,162,NA,NA,NA,NA
"1351",4,3,9,1,1,8,5,4,1,1,1,609,164,0,"MIX",7,4,1,6,163,164,165,166
"1352",4,3,10,1,1,2,2,1,1,1,1,428,6,1,"MIX",6,167,NA,NA,NA,NA,NA,NA
"1353",4,3,11,2,1,4,0,0,2,1,1,466,170,0,"MIX",2,3,168,169,NA,NA,NA,NA
"1354",4,3,12,1,1,8,7,2,2,1,0,637,174,0,"MIX",4,6,2,3,171,172,173,174
"1355",4,3,13,1,1,2,1,2,2,1,0,502,175,0,"MIX",5,175,NA,NA,NA,NA,NA,NA
"1356",4,3,14,2,1,4,0,0,1,0,1,889,5,1,"MIX",4,1,176,177,NA,NA,NA,NA
"1357",4,3,15,2,1,8,0,0,2,1,1,1384,2,1,"MIX",1,4,5,6,178,179,180,181
"1358",4,3,16,1,1,2,2,1,2,1,0,436,182,0,"MIX",7,182,NA,NA,NA,NA,NA,NA
"1359",4,3,17,2,1,4,0,0,2,1,1,617,4,1,"MIX",3,7,183,184,NA,NA,NA,NA
"1360",4,3,18,1,1,4,2,3,2,1,0,1015,186,0,"MIX",3,4,185,186,NA,NA,NA,NA
"1361",4,3,19,1,1,2,2,1,2,0,1,593,3,1,"MIX",3,187,NA,NA,NA,NA,NA,NA
"1362",4,3,20,1,1,2,1,2,2,1,0,796,188,0,"MIX",6,188,NA,NA,NA,NA,NA,NA
"1363",4,3,21,2,1,4,0,0,1,1,0,689,191,0,"MIX",2,3,189,190,NA,NA,NA,NA
"1364",4,3,22,2,1,2,0,0,1,1,0,906,13,1,"MIX",5,192,NA,NA,NA,NA,NA,NA
"1365",4,3,23,2,1,4,0,0,2,1,1,574,3,1,"MIX",3,8,193,194,NA,NA,NA,NA
"1366",4,3,24,2,1,4,0,0,1,1,0,623,197,0,"MIX",7,6,195,196,NA,NA,NA,NA
"1367",4,4,1,1,1,8,6,3,2,1,0,678,199,0,"MIX",2,3,5,6,198,199,200,201
"1368",4,4,2,1,1,2,1,2,2,1,0,655,1,1,"MIX",1,202,NA,NA,NA,NA,NA,NA
"1369",4,4,3,2,1,2,0,0,2,1,1,535,204,0,"MIX",2,203,NA,NA,NA,NA,NA,NA
"1370",4,4,4,2,1,8,0,0,1,1,0,785,209,0,"MIX",3,2,6,8,205,206,207,208
"1371",4,4,5,1,1,8,5,4,1,1,1,565,4,1,"MIX",6,8,1,4,210,211,212,213
"1372",4,4,6,1,1,2,2,1,1,1,1,465,2,1,"MIX",2,214,NA,NA,NA,NA,NA,NA
"1373",4,4,7,2,1,4,0,0,1,1,0,552,217,0,"MIX",1,7,215,216,NA,NA,NA,NA
"1374",4,4,8,2,1,2,0,0,2,1,1,500,219,0,"MIX",7,218,NA,NA,NA,NA,NA,NA
"1375",4,4,9,2,1,4,0,0,2,1,1,473,222,0,"MIX",2,3,220,221,NA,NA,NA,NA
"1376",4,4,10,2,1,4,0,0,1,1,0,556,225,0,"MIX",4,3,223,224,NA,NA,NA,NA
"1377",4,4,11,1,1,8,4,5,1,1,1,1089,228,0,"MIX",4,7,8,6,226,227,228,229
"1378",4,4,12,2,1,2,0,0,2,1,1,538,6,1,"MIX",6,230,NA,NA,NA,NA,NA,NA
"1379",4,4,13,2,1,2,0,0,1,1,0,630,13,1,"MIX",4,231,NA,NA,NA,NA,NA,NA
"1380",4,4,14,2,1,8,0,0,2,1,1,1470,1,1,"MIX",5,7,6,4,232,233,234,235
"1381",4,4,15,2,1,4,0,0,1,1,0,554,238,0,"MIX",3,4,236,237,NA,NA,NA,NA
"1382",4,4,16,2,1,2,0,0,1,1,0,503,240,0,"MIX",2,239,NA,NA,NA,NA,NA,NA
"1383",4,4,17,2,1,8,0,0,1,1,0,593,245,0,"MIX",2,3,6,4,241,242,243,244
"1384",4,4,18,1,1,8,2,7,1,1,1,523,8,1,"MIX",1,7,2,8,246,247,248,249
"1385",4,4,19,2,1,4,0,0,1,1,0,813,252,0,"MIX",3,7,250,251,NA,NA,NA,NA
"1386",4,4,20,1,1,4,4,1,2,1,0,548,254,0,"MIX",4,8,253,254,NA,NA,NA,NA
"1387",4,4,21,1,1,4,2,3,1,1,1,965,256,0,"MIX",6,4,255,256,NA,NA,NA,NA
"1388",4,4,22,1,1,8,1,8,1,1,1,877,260,0,"MIX",4,1,2,8,257,258,259,260
"1389",4,4,23,1,1,4,3,2,2,1,0,912,262,0,"MIX",4,5,261,262,NA,NA,NA,NA
"1390",4,4,24,2,1,8,0,0,2,1,1,762,6,1,"MIX",6,1,5,3,263,264,265,266
"1391",4,5,1,1,1,2,1,2,2,1,0,548,4,1,"MIX",4,267,NA,NA,NA,NA,NA,NA
"1392",4,5,2,1,1,8,2,7,2,1,0,590,269,0,"MIX",7,4,1,8,268,269,270,271
"1393",4,5,3,2,1,2,0,0,2,1,1,1002,4,1,"MIX",2,272,NA,NA,NA,NA,NA,NA
"1394",4,5,4,2,1,8,0,0,1,1,0,623,277,0,"MIX",4,2,6,7,273,274,275,276
"1395",4,5,5,1,1,4,4,1,1,1,1,445,5,1,"MIX",5,2,278,279,NA,NA,NA,NA
"1396",4,5,6,1,1,2,2,1,2,1,0,414,280,0,"MIX",4,280,NA,NA,NA,NA,NA,NA
"1397",4,5,7,1,1,4,4,1,2,1,0,502,6,1,"MIX",3,6,281,282,NA,NA,NA,NA
"1398",4,5,8,1,1,8,8,1,1,1,1,466,5,1,"MIX",8,5,3,6,283,284,285,286
"1399",4,5,9,1,1,2,2,1,2,1,0,371,287,0,"MIX",7,287,NA,NA,NA,NA,NA,NA
"1400",4,5,10,2,1,8,0,0,1,1,0,851,13,1,"MIX",4,1,7,5,288,289,290,291
"1401",4,5,11,1,1,4,2,3,2,1,0,1032,293,0,"MIX",2,6,292,293,NA,NA,NA,NA
"1402",4,5,12,2,1,8,0,0,2,1,1,575,298,0,"MIX",8,6,1,5,294,295,296,297
"1403",4,5,13,1,1,8,5,4,1,1,1,630,3,1,"MIX",2,8,6,3,299,300,301,302
"1404",4,5,14,2,1,8,0,0,1,0,1,800,1,1,"MIX",5,6,8,4,303,304,305,306
"1405",4,5,15,1,1,8,4,5,2,1,0,1314,307,0,"MIX",5,7,3,2,307,308,309,310
"1406",4,5,16,1,1,2,2,1,2,1,0,656,311,0,"MIX",8,311,NA,NA,NA,NA,NA,NA
"1407",4,5,17,2,1,4,0,0,2,1,1,572,314,0,"MIX",6,1,312,313,NA,NA,NA,NA
"1408",4,5,18,2,1,4,0,0,1,0,1,844,7,1,"MIX",6,8,315,316,NA,NA,NA,NA
"1409",4,5,19,2,1,2,0,0,2,1,1,622,318,0,"MIX",2,317,NA,NA,NA,NA,NA,NA
"1410",4,5,20,1,1,8,7,2,2,0,1,823,7,1,"MIX",5,3,7,6,319,320,321,322
"1411",4,5,21,1,1,8,4,5,2,1,0,743,5,1,"MIX",3,6,7,5,323,324,325,326
"1412",4,5,22,2,1,2,0,0,1,1,0,571,328,0,"MIX",3,327,NA,NA,NA,NA,NA,NA
"1413",4,5,23,1,1,2,2,1,2,1,0,472,329,0,"MIX",7,329,NA,NA,NA,NA,NA,NA
"1414",4,5,24,2,1,2,0,0,2,1,1,602,6,1,"MIX",2,330,NA,NA,NA,NA,NA,NA
"1415",4,6,1,1,1,2,1,2,2,1,0,468,1,1,"MIX",1,331,NA,NA,NA,NA,NA,NA
"1416",4,6,2,1,1,2,1,2,1,1,1,724,1,1,"MIX",1,332,NA,NA,NA,NA,NA,NA
"1417",4,6,3,1,1,8,7,2,1,1,1,585,333,0,"MIX",4,8,3,6,333,334,335,336
"1418",4,6,4,1,1,4,3,2,1,1,1,714,3,1,"MIX",3,5,337,338,NA,NA,NA,NA
"1419",4,6,5,1,1,2,2,1,1,1,1,737,339,0,"MIX",5,339,NA,NA,NA,NA,NA,NA
"1420",4,6,6,1,1,8,6,3,2,1,0,545,2,1,"MIX",5,2,8,4,340,341,342,343
"1421",4,6,7,1,1,4,3,2,2,1,0,691,345,0,"MIX",3,8,344,345,NA,NA,NA,NA
"1422",4,6,8,1,1,4,2,3,1,1,1,895,6,1,"MIX",1,6,346,347,NA,NA,NA,NA
"1423",4,6,9,1,1,2,2,1,1,1,1,478,348,0,"MIX",1,348,NA,NA,NA,NA,NA,NA
"1424",4,6,10,1,1,4,3,2,2,1,0,674,349,0,"MIX",2,8,349,350,NA,NA,NA,NA
"1425",4,6,11,1,1,4,4,1,2,1,0,544,5,1,"MIX",5,3,351,352,NA,NA,NA,NA
"1426",4,6,12,1,1,4,2,3,1,1,1,529,354,0,"MIX",6,8,353,354,NA,NA,NA,NA
"1427",4,6,13,2,1,2,0,0,2,1,1,560,8,1,"MIX",8,355,NA,NA,NA,NA,NA,NA
"1428",4,6,14,1,1,2,1,2,1,1,1,668,1,1,"MIX",1,356,NA,NA,NA,NA,NA,NA
"1429",4,6,15,1,1,2,2,1,2,1,0,500,2,1,"MIX",2,357,NA,NA,NA,NA,NA,NA
"1430",4,6,16,2,1,8,0,0,2,1,1,753,362,0,"MIX",5,7,1,3,358,359,360,361
"1431",4,6,17,1,1,8,5,4,2,1,0,533,8,1,"MIX",8,3,4,7,363,364,365,366
"1432",4,6,18,2,1,8,0,0,1,1,0,642,371,0,"MIX",6,5,7,8,367,368,369,370
