"","Subnum","Block","Trial","Old","testcdisgard","Setsize","Serpos","Lag","Response","Correctness","Side","RT","WhichProbe","Stimkind","FileCondi","prob1","prob2","prob3","prob4","prob5","prob6","prob7","prob8"
"1",1,2,1,2,1,2,0,0,2,1,1,1214,7,1,"CMat",13,9,NA,NA,NA,NA,NA,NA
"2",1,2,2,1,1,4,1,4,2,1,0,827,75,0,"CMat",75,76,77,78,NA,NA,NA,NA
"3",1,2,3,1,1,4,1,4,1,1,1,755,13,1,"CMat",13,11,14,10,NA,NA,NA,NA
"4",1,2,4,1,1,8,5,4,1,1,1,1036,83,0,"CMat",79,80,81,82,83,84,85,86
"5",1,2,5,2,1,8,0,0,1,1,0,741,12,1,"CMat",5,6,1,3,8,7,4,2
"6",1,2,6,2,1,2,0,0,2,1,1,753,89,0,"CMat",87,88,NA,NA,NA,NA,NA,NA
"7",1,2,7,2,1,8,0,0,1,1,0,1087,13,1,"CMat",6,7,5,8,1,2,3,4
"8",1,2,8,2,1,8,0,0,2,1,1,873,98,0,"CMat",90,91,92,93,94,95,96,97
"9",1,2,9,2,1,2,0,0,2,1,1,946,8,1,"CMat",14,11,NA,NA,NA,NA,NA,NA
"10",1,2,10,2,1,2,0,0,2,1,1,486,101,0,"CMat",99,100,NA,NA,NA,NA,NA,NA
"11",1,2,11,1,1,4,1,4,1,1,1,884,15,1,"CMat",15,9,13,11,NA,NA,NA,NA
"12",1,2,12,1,1,2,2,1,2,1,0,850,103,0,"CMat",102,103,NA,NA,NA,NA,NA,NA
"13",1,2,13,1,1,4,3,2,2,1,0,922,7,1,"CMat",8,1,7,5,NA,NA,NA,NA
"14",1,2,14,1,1,2,2,1,1,1,1,830,105,0,"CMat",104,105,NA,NA,NA,NA,NA,NA
"15",1,2,15,2,1,8,0,0,1,1,0,890,13,1,"CMat",5,6,3,2,4,8,7,1
"16",1,2,16,2,1,8,0,0,1,1,0,689,114,0,"CMat",106,107,108,109,110,111,112,113
"17",1,2,17,2,1,4,0,0,1,1,0,695,13,1,"CMat",6,5,8,2,NA,NA,NA,NA
"18",1,2,18,1,1,2,1,2,1,1,1,766,115,0,"CMat",115,116,NA,NA,NA,NA,NA,NA
"19",1,2,19,1,1,2,1,2,2,1,0,691,5,1,"CMat",5,8,NA,NA,NA,NA,NA,NA
"20",1,2,20,1,1,4,2,3,2,1,0,910,118,0,"CMat",117,118,119,120,NA,NA,NA,NA
"21",1,2,21,1,1,2,1,2,2,1,0,509,6,1,"CMat",6,8,NA,NA,NA,NA,NA,NA
"22",1,2,22,2,1,4,0,0,2,1,1,703,125,0,"CMat",121,122,123,124,NA,NA,NA,NA
"23",1,2,23,2,1,8,0,0,1,1,0,447,13,1,"CMat",6,2,7,5,3,4,8,1
"24",1,2,24,1,1,2,1,2,2,1,0,833,126,0,"CMat",126,127,NA,NA,NA,NA,NA,NA
"25",1,3,1,2,1,8,0,0,2,1,1,681,1,1,"CMat",14,15,13,9,16,12,11,10
"26",1,3,2,2,1,8,0,0,2,1,1,498,136,0,"CMat",128,129,130,131,132,133,134,135
"27",1,3,3,2,1,8,0,0,2,1,1,858,8,1,"CMat",13,14,11,12,10,15,9,16
"28",1,3,4,1,1,2,2,1,2,1,0,850,138,0,"CMat",137,138,NA,NA,NA,NA,NA,NA
"29",1,3,5,1,1,2,2,1,2,1,0,604,1,1,"CMat",8,1,NA,NA,NA,NA,NA,NA
"30",1,3,6,1,1,2,1,2,1,1,1,1206,139,0,"CMat",139,140,NA,NA,NA,NA,NA,NA
"31",1,3,7,1,1,8,8,1,2,1,0,851,4,1,"CMat",6,2,5,3,8,1,7,4
"32",1,3,8,1,1,8,4,5,2,1,0,1221,144,0,"CMat",141,142,143,144,145,146,147,148
"33",1,3,9,2,1,4,0,0,1,1,0,629,15,1,"CMat",2,5,6,7,NA,NA,NA,NA
"34",1,3,10,2,1,2,0,0,1,1,0,750,151,0,"CMat",149,150,NA,NA,NA,NA,NA,NA
"35",1,3,11,1,1,8,2,7,2,0,1,1492,15,1,"CMat",12,15,9,13,10,16,11,14
"36",1,3,12,1,1,8,4,5,2,1,0,934,155,0,"CMat",152,153,154,155,156,157,158,159
"37",1,3,13,1,1,4,4,1,2,1,0,786,4,1,"CMat",6,2,7,4,NA,NA,NA,NA
"38",1,3,14,2,1,4,0,0,2,1,1,679,164,0,"CMat",160,161,162,163,NA,NA,NA,NA
"39",1,3,15,1,1,2,1,2,2,0,1,608,12,1,"CMat",12,14,NA,NA,NA,NA,NA,NA
"40",1,3,16,1,1,2,2,1,1,1,1,587,166,0,"CMat",165,166,NA,NA,NA,NA,NA,NA
"41",1,3,17,1,1,4,2,3,1,0,0,1085,1,1,"CMat",6,1,3,2,NA,NA,NA,NA
"42",1,3,18,2,1,2,0,0,2,1,1,1051,169,0,"CMat",167,168,NA,NA,NA,NA,NA,NA
"43",1,3,19,2,1,2,0,0,2,1,1,941,3,1,"CMat",11,14,NA,NA,NA,NA,NA,NA
"44",1,3,20,2,1,2,0,0,2,1,1,1345,172,0,"CMat",170,171,NA,NA,NA,NA,NA,NA
"45",1,3,21,1,1,8,2,7,1,1,1,1776,10,1,"CMat",11,10,12,16,9,14,13,15
"46",1,3,22,1,1,8,3,6,2,1,0,1317,175,0,"CMat",173,174,175,176,177,178,179,180
"47",1,3,23,1,1,2,2,1,2,1,0,1037,2,1,"CMat",5,2,NA,NA,NA,NA,NA,NA
"48",1,3,24,1,1,4,3,2,2,1,0,689,183,0,"CMat",181,182,183,184,NA,NA,NA,NA
"49",1,4,1,1,1,8,2,7,2,1,0,559,8,1,"CMat",5,8,1,7,4,3,6,2
"50",1,4,2,2,1,4,0,0,2,1,1,591,189,0,"CMat",185,186,187,188,NA,NA,NA,NA
"51",1,4,3,1,1,4,2,3,2,1,0,985,6,1,"CMat",5,6,1,7,NA,NA,NA,NA
"52",1,4,4,2,1,2,0,0,1,1,0,778,192,0,"CMat",190,191,NA,NA,NA,NA,NA,NA
"53",1,4,5,1,1,2,1,2,1,1,1,808,11,1,"CMat",11,13,NA,NA,NA,NA,NA,NA
"54",1,4,6,2,1,4,0,0,1,1,0,732,197,0,"CMat",193,194,195,196,NA,NA,NA,NA
"55",1,4,7,1,1,4,1,4,2,1,0,825,1,1,"CMat",1,2,4,8,NA,NA,NA,NA
"56",1,4,8,1,1,2,2,1,1,1,1,754,199,0,"CMat",198,199,NA,NA,NA,NA,NA,NA
"57",1,4,9,1,1,4,1,4,2,1,0,766,2,1,"CMat",2,4,3,8,NA,NA,NA,NA
"58",1,4,10,2,1,8,0,0,1,1,0,652,208,0,"CMat",200,201,202,203,204,205,206,207
"59",1,4,11,1,1,4,1,4,1,1,1,419,9,1,"CMat",9,16,12,13,NA,NA,NA,NA
"60",1,4,12,2,1,4,0,0,1,1,0,567,213,0,"CMat",209,210,211,212,NA,NA,NA,NA
"61",1,4,13,2,1,4,0,0,1,1,0,849,11,1,"CMat",2,8,4,5,NA,NA,NA,NA
"62",1,4,14,1,1,8,8,1,1,1,1,753,221,0,"CMat",214,215,216,217,218,219,220,221
"63",1,4,15,1,1,4,4,1,1,1,1,765,12,1,"CMat",15,11,16,12,NA,NA,NA,NA
"64",1,4,16,1,1,2,1,2,2,1,0,929,222,0,"CMat",222,223,NA,NA,NA,NA,NA,NA
"65",1,4,17,1,1,8,2,7,2,1,0,744,5,1,"CMat",7,5,4,3,2,1,6,8
"66",1,4,18,2,1,8,0,0,1,1,0,442,232,0,"CMat",224,225,226,227,228,229,230,231
"67",1,4,19,1,1,2,2,1,2,1,0,716,1,1,"CMat",4,1,NA,NA,NA,NA,NA,NA
"68",1,4,20,1,1,2,1,2,2,1,0,674,233,0,"CMat",233,234,NA,NA,NA,NA,NA,NA
"69",1,4,21,2,1,8,0,0,2,1,1,835,5,1,"CMat",13,14,12,16,15,9,10,11
"70",1,4,22,2,1,8,0,0,2,1,1,470,243,0,"CMat",235,236,237,238,239,240,241,242
"71",1,4,23,2,1,4,0,0,2,1,1,429,2,1,"CMat",10,13,9,15,NA,NA,NA,NA
"72",1,4,24,2,1,8,0,0,2,1,1,921,252,0,"CMat",244,245,246,247,248,249,250,251
"73",1,5,1,1,1,8,2,7,2,1,0,984,2,1,"CMat",3,2,7,8,4,5,6,1
"74",1,5,2,1,1,2,2,1,1,1,1,731,254,0,"CMat",253,254,NA,NA,NA,NA,NA,NA
"75",1,5,3,1,1,4,2,3,1,1,1,631,16,1,"CMat",15,16,11,14,NA,NA,NA,NA
"76",1,5,4,1,1,4,1,4,1,1,1,741,255,0,"CMat",255,256,257,258,NA,NA,NA,NA
"77",1,5,5,2,1,8,0,0,2,1,1,620,5,1,"CMat",16,12,9,13,10,14,15,11
"78",1,5,6,1,1,8,1,8,2,1,0,888,259,0,"CMat",259,260,261,262,263,264,265,266
"79",1,5,7,2,1,8,0,0,2,1,1,817,4,1,"CMat",10,15,16,9,11,13,12,14
"80",1,5,8,1,1,4,3,2,1,1,1,950,269,0,"CMat",267,268,269,270,NA,NA,NA,NA
"81",1,5,9,2,1,2,0,0,1,1,0,772,9,1,"CMat",7,5,NA,NA,NA,NA,NA,NA
"82",1,5,10,2,1,4,0,0,1,1,0,1314,275,0,"CMat",271,272,273,274,NA,NA,NA,NA
"83",1,5,11,2,1,8,0,0,2,1,1,818,5,1,"CMat",14,11,12,13,9,15,16,10
"84",1,5,12,1,1,2,2,1,1,1,1,812,277,0,"CMat",276,277,NA,NA,NA,NA,NA,NA
"85",1,5,13,1,1,4,4,1,2,1,0,701,6,1,"CMat",2,3,4,6,NA,NA,NA,NA
"86",1,5,14,2,1,8,0,0,2,0,0,1301,286,0,"CMat",278,279,280,281,282,283,284,285
"87",1,5,15,2,1,4,0,0,1,1,0,2282,11,1,"CMat",4,1,2,7,NA,NA,NA,NA
"88",1,5,16,2,1,4,0,0,1,1,0,717,291,0,"CMat",287,288,289,290,NA,NA,NA,NA
"89",1,5,17,2,1,2,0,0,2,1,1,557,8,1,"CMat",12,11,NA,NA,NA,NA,NA,NA
"90",1,5,18,1,1,4,3,2,2,1,0,1197,294,0,"CMat",292,293,294,295,NA,NA,NA,NA
"91",1,5,19,1,1,8,2,7,2,1,0,714,4,1,"CMat",8,4,3,1,5,6,2,7
"92",1,5,20,1,1,2,1,2,2,1,0,656,296,0,"CMat",296,297,NA,NA,NA,NA,NA,NA
"93",1,5,21,2,1,8,0,0,1,1,0,938,10,1,"CMat",4,3,1,7,5,2,8,6
"94",1,5,22,2,1,4,0,0,2,1,1,899,302,0,"CMat",298,299,300,301,NA,NA,NA,NA
"95",1,5,23,2,1,4,0,0,2,0,0,2048,10,1,"CMat",3,8,7,2,NA,NA,NA,NA
"96",1,5,24,1,1,2,1,2,1,1,1,761,303,0,"CMat",303,304,NA,NA,NA,NA,NA,NA
"97",1,6,1,2,1,8,0,0,2,1,1,702,7,1,"CMat",9,16,10,15,13,14,11,12
"98",1,6,2,2,1,8,0,0,1,1,0,703,313,0,"CMat",305,306,307,308,309,310,311,312
"99",1,6,3,1,1,8,2,7,2,1,0,2295,8,1,"CMat",2,8,6,5,3,7,1,4
"100",1,6,4,2,1,8,0,0,1,1,0,747,322,0,"CMat",314,315,316,317,318,319,320,321
"101",1,6,5,1,1,2,1,2,2,1,0,778,8,1,"CMat",8,3,NA,NA,NA,NA,NA,NA
"102",1,6,6,1,1,2,2,1,2,1,0,477,324,0,"CMat",323,324,NA,NA,NA,NA,NA,NA
"103",1,6,7,1,1,2,1,2,1,1,1,567,13,1,"CMat",13,15,NA,NA,NA,NA,NA,NA
"104",1,6,8,1,1,2,1,2,2,1,0,642,325,0,"CMat",325,326,NA,NA,NA,NA,NA,NA
"105",1,6,9,2,1,4,0,0,1,1,0,1050,16,1,"CMat",2,4,6,8,NA,NA,NA,NA
"106",1,6,10,2,1,8,0,0,1,1,0,542,335,0,"CMat",327,328,329,330,331,332,333,334
"107",1,6,11,2,1,8,0,0,2,1,1,677,2,1,"CMat",10,9,13,11,15,14,16,12
"108",1,6,12,1,1,8,6,3,2,1,0,1264,341,0,"CMat",336,337,338,339,340,341,342,343
"109",1,6,13,1,1,4,2,3,2,1,0,687,3,1,"CMat",4,3,1,6,NA,NA,NA,NA
"110",1,6,14,1,1,2,1,2,2,1,0,485,344,0,"CMat",344,345,NA,NA,NA,NA,NA,NA
"111",1,6,15,1,1,8,7,2,2,1,0,686,1,1,"CMat",5,8,6,7,3,2,1,4
"112",1,6,16,1,1,4,4,1,1,1,1,681,349,0,"CMat",346,347,348,349,NA,NA,NA,NA
"113",1,6,17,1,1,8,3,6,2,1,0,578,5,1,"CMat",2,6,5,3,8,4,1,7
"114",1,6,18,1,1,2,2,1,2,1,0,414,351,0,"CMat",350,351,NA,NA,NA,NA,NA,NA
"115",1,6,19,2,1,8,0,0,2,1,1,785,5,1,"CMat",9,16,11,14,15,12,13,10
"116",1,6,20,1,1,4,2,3,2,1,0,568,353,0,"CMat",352,353,354,355,NA,NA,NA,NA
"117",1,6,21,1,1,2,1,2,1,1,1,518,9,1,"CMat",9,11,NA,NA,NA,NA,NA,NA
"118",1,6,22,1,1,8,7,2,2,1,0,935,362,0,"CMat",356,357,358,359,360,361,362,363
"119",1,6,23,2,1,2,0,0,2,1,1,830,3,1,"CMat",13,12,NA,NA,NA,NA,NA,NA
"120",1,6,24,1,1,4,2,3,2,1,0,764,365,0,"CMat",364,365,366,367,NA,NA,NA,NA
"121",1,7,1,2,1,2,0,0,2,1,1,648,4,1,"CMat",12,11,NA,NA,NA,NA,NA,NA
"122",1,7,2,2,1,8,0,0,2,1,1,1043,376,0,"CMat",368,369,370,371,372,373,374,375
"123",1,7,3,1,1,8,3,6,2,1,0,1766,2,1,"CMat",6,7,2,8,1,3,4,5
"124",1,7,4,2,1,2,0,0,2,1,1,737,379,0,"CMat",377,378,NA,NA,NA,NA,NA,NA
"125",1,7,5,2,1,8,0,0,2,1,1,688,5,1,"CMat",9,10,14,12,15,11,13,16
"126",1,7,6,2,1,2,0,0,1,1,0,1438,382,0,"CMat",380,381,NA,NA,NA,NA,NA,NA
"127",1,7,7,2,1,4,0,0,2,1,1,503,2,1,"CMat",10,14,12,16,NA,NA,NA,NA
"128",1,7,8,2,1,2,0,0,2,1,1,1124,385,0,"CMat",383,384,NA,NA,NA,NA,NA,NA
"129",1,7,9,2,1,4,0,0,1,1,0,881,12,1,"CMat",8,6,5,7,NA,NA,NA,NA
"130",1,7,10,2,1,8,0,0,2,1,1,571,394,0,"CMat",386,387,388,389,390,391,392,393
"131",1,7,11,2,1,4,0,0,1,1,0,1726,14,1,"CMat",2,1,7,5,NA,NA,NA,NA
"132",1,7,12,1,1,8,7,2,2,1,0,1027,401,0,"CMat",395,396,397,398,399,400,401,402
"133",1,7,13,2,1,8,0,0,2,1,1,574,8,1,"CMat",16,9,12,11,15,10,14,13
"134",1,7,14,1,1,4,3,2,1,1,1,942,405,0,"CMat",403,404,405,406,NA,NA,NA,NA
"135",1,7,15,1,1,8,8,1,2,1,0,684,2,1,"CMat",8,4,1,3,5,7,6,2
"136",1,7,16,1,1,8,1,8,1,1,1,624,407,0,"CMat",407,408,409,410,411,412,413,414
"137",1,7,17,1,1,4,1,4,1,1,1,720,15,1,"CMat",15,9,13,14,NA,NA,NA,NA
"138",1,7,18,2,1,8,0,0,2,1,1,903,423,0,"CMat",415,416,417,418,419,420,421,422
"139",1,7,19,2,1,2,0,0,1,1,0,847,11,1,"CMat",8,4,NA,NA,NA,NA,NA,NA
"140",1,7,20,1,1,4,2,3,2,0,1,660,425,0,"CMat",424,425,426,427,NA,NA,NA,NA
"141",1,7,21,1,1,8,1,8,1,1,1,814,11,1,"CMat",11,16,10,15,14,13,9,12
"142",1,7,22,1,1,2,2,1,2,1,0,743,429,0,"CMat",428,429,NA,NA,NA,NA,NA,NA
"143",1,7,23,1,1,8,3,6,1,1,1,790,14,1,"CMat",9,15,14,13,11,16,10,12
"144",1,7,24,1,1,4,3,2,1,1,1,2245,432,0,"CMat",430,431,432,433,NA,NA,NA,NA
"145",1,8,1,2,1,4,0,0,1,1,0,690,12,1,"CMat",2,5,8,3,NA,NA,NA,NA
"146",1,8,2,2,1,2,0,0,1,1,0,705,436,0,"CMat",434,435,NA,NA,NA,NA,NA,NA
"147",1,8,3,2,1,4,0,0,1,1,0,502,10,1,"CMat",7,6,8,2,NA,NA,NA,NA
"148",1,8,4,1,1,4,1,4,1,1,1,791,437,0,"CMat",437,438,439,440,NA,NA,NA,NA
"149",1,8,5,2,1,8,0,0,2,1,1,699,2,1,"CMat",16,15,10,11,13,14,9,12
"150",1,8,6,1,1,4,3,2,1,1,1,789,443,0,"CMat",441,442,443,444,NA,NA,NA,NA
"151",1,8,7,2,1,8,0,0,2,1,1,602,2,1,"CMat",11,13,10,16,15,14,12,9
"152",1,8,8,1,1,8,1,8,2,1,0,1007,445,0,"CMat",445,446,447,448,449,450,451,452
"153",1,8,9,1,1,8,4,5,2,1,0,555,3,1,"CMat",5,1,7,3,2,4,8,6
"154",1,8,10,2,1,4,0,0,2,1,1,514,457,0,"CMat",453,454,455,456,NA,NA,NA,NA
"155",1,8,11,2,1,4,0,0,2,1,1,624,4,1,"CMat",15,14,13,9,NA,NA,NA,NA
"156",1,8,12,1,1,8,7,2,1,1,1,1373,464,0,"CMat",458,459,460,461,462,463,464,465
"157",1,8,13,1,1,4,3,2,1,1,1,616,14,1,"CMat",9,10,14,15,NA,NA,NA,NA
"158",1,8,14,2,1,8,0,0,2,1,1,706,474,0,"CMat",466,467,468,469,470,471,472,473
"159",1,8,15,2,1,8,0,0,1,1,0,682,14,1,"CMat",2,8,7,4,5,3,6,1
"160",1,8,16,1,1,2,1,2,1,1,1,770,475,0,"CMat",475,476,NA,NA,NA,NA,NA,NA
"161",1,8,17,1,1,8,2,7,2,1,0,559,8,1,"CMat",1,8,6,4,2,3,7,5
"162",1,8,18,2,1,8,0,0,2,1,1,589,485,0,"CMat",477,478,479,480,481,482,483,484
"163",1,8,19,1,1,8,7,2,2,1,0,642,4,1,"CMat",3,8,6,7,5,1,4,2
"164",1,8,20,1,1,4,2,3,2,1,0,1573,487,0,"CMat",486,487,488,489,NA,NA,NA,NA
"165",1,8,21,2,1,4,0,0,1,1,0,768,14,1,"CMat",1,6,5,2,NA,NA,NA,NA
"166",1,8,22,1,1,4,3,2,1,1,1,1063,492,0,"CMat",490,491,492,493,NA,NA,NA,NA
"167",1,8,23,1,1,2,2,1,1,1,1,473,15,1,"CMat",10,15,NA,NA,NA,NA,NA,NA
"168",1,8,24,1,1,2,2,1,1,1,1,353,495,0,"CMat",494,495,NA,NA,NA,NA,NA,NA
"169",1,9,1,1,1,2,1,2,2,1,0,401,7,1,"CMat",7,8,NA,NA,NA,NA,NA,NA
"170",1,9,2,1,1,8,3,6,1,1,1,702,498,0,"CMat",496,497,498,499,500,501,502,503
"171",1,9,3,2,1,2,0,0,1,1,0,758,13,1,"CMat",1,6,NA,NA,NA,NA,NA,NA
"172",1,9,4,2,1,2,0,0,1,1,0,641,506,0,"CMat",504,505,NA,NA,NA,NA,NA,NA
"173",1,9,5,2,1,2,0,0,1,1,0,539,11,1,"CMat",2,1,NA,NA,NA,NA,NA,NA
"174",1,9,6,2,1,8,0,0,1,1,0,474,515,0,"CMat",507,508,509,510,511,512,513,514
"175",1,9,7,1,1,2,2,1,2,1,0,595,7,1,"CMat",1,7,NA,NA,NA,NA,NA,NA
"176",1,9,8,1,1,8,6,3,2,1,0,1595,521,0,"CMat",516,517,518,519,520,521,522,523
"177",1,9,9,1,1,4,1,4,2,1,0,516,7,1,"CMat",7,6,3,1,NA,NA,NA,NA
"178",1,9,10,1,1,2,1,2,2,1,0,451,524,0,"CMat",524,525,NA,NA,NA,NA,NA,NA
"179",1,9,11,2,1,4,0,0,2,1,1,690,5,1,"CMat",14,10,16,13,NA,NA,NA,NA
"180",1,9,12,1,1,2,1,2,1,1,1,745,526,0,"CMat",526,527,NA,NA,NA,NA,NA,NA
"181",1,9,13,1,1,8,3,6,1,1,1,424,12,1,"CMat",10,16,12,11,15,9,13,14
"182",1,9,14,2,1,2,0,0,2,1,1,569,530,0,"CMat",528,529,NA,NA,NA,NA,NA,NA
"183",1,9,15,2,1,8,0,0,2,1,1,542,3,1,"CMat",14,16,12,9,11,10,15,13
"184",1,9,16,2,1,2,0,0,2,1,1,513,533,0,"CMat",531,532,NA,NA,NA,NA,NA,NA
"185",1,9,17,1,1,8,5,4,2,1,0,713,2,1,"CMat",5,4,8,7,2,3,6,1
"186",1,9,18,2,1,2,0,0,1,1,0,535,536,0,"CMat",534,535,NA,NA,NA,NA,NA,NA
"187",1,9,19,2,1,2,0,0,1,1,0,454,10,1,"CMat",1,6,NA,NA,NA,NA,NA,NA
"188",1,9,20,2,1,2,0,0,2,1,1,421,539,0,"CMat",537,538,NA,NA,NA,NA,NA,NA
"189",1,9,21,2,1,4,0,0,1,1,0,734,10,1,"CMat",3,2,1,8,NA,NA,NA,NA
"190",1,9,22,2,1,4,0,0,2,1,1,718,544,0,"CMat",540,541,542,543,NA,NA,NA,NA
"191",1,9,23,2,1,8,0,0,2,1,1,654,1,1,"CMat",16,9,12,13,15,11,10,14
"192",1,9,24,2,1,8,0,0,2,1,1,1735,553,0,"CMat",545,546,547,548,549,550,551,552
"193",2,2,1,2,1,8,0,0,2,1,1,583,1,1,"CMat",11,16,15,12,14,10,13,9
"194",2,2,2,2,1,8,0,0,2,1,1,607,83,0,"CMat",75,76,77,78,79,80,81,82
"195",2,2,3,2,1,2,0,0,2,1,1,458,2,1,"CMat",14,10,NA,NA,NA,NA,NA,NA
"196",2,2,4,2,1,4,0,0,1,1,0,511,88,0,"CMat",84,85,86,87,NA,NA,NA,NA
"197",2,2,5,1,1,2,1,2,2,1,0,510,2,1,"CMat",2,1,NA,NA,NA,NA,NA,NA
"198",2,2,6,2,1,4,0,0,2,1,1,623,93,0,"CMat",89,90,91,92,NA,NA,NA,NA
"199",2,2,7,1,1,4,3,2,2,1,0,639,8,1,"CMat",6,3,8,7,NA,NA,NA,NA
"200",2,2,8,2,1,4,0,0,2,1,1,524,98,0,"CMat",94,95,96,97,NA,NA,NA,NA
"201",2,2,9,1,1,8,2,7,1,1,1,587,12,1,"CMat",14,12,13,16,15,9,11,10
"202",2,2,10,2,1,8,0,0,2,1,1,515,107,0,"CMat",99,100,101,102,103,104,105,106
"203",2,2,11,1,1,2,2,1,1,1,1,515,15,1,"CMat",10,15,NA,NA,NA,NA,NA,NA
"204",2,2,12,2,1,4,0,0,1,1,0,756,112,0,"CMat",108,109,110,111,NA,NA,NA,NA
"205",2,2,13,1,1,8,4,5,2,1,0,649,8,1,"CMat",4,6,1,8,7,3,2,5
"206",2,2,14,1,1,4,3,2,2,1,0,421,115,0,"CMat",113,114,115,116,NA,NA,NA,NA
"207",2,2,15,2,1,8,0,0,1,1,0,712,13,1,"CMat",1,4,6,8,3,2,7,5
"208",2,2,16,1,1,2,2,1,2,1,0,463,118,0,"CMat",117,118,NA,NA,NA,NA,NA,NA
"209",2,2,17,2,1,2,0,0,2,1,1,561,3,1,"CMat",13,15,NA,NA,NA,NA,NA,NA
"210",2,2,18,1,1,2,1,2,2,1,0,589,119,0,"CMat",119,120,NA,NA,NA,NA,NA,NA
"211",2,2,19,1,1,8,1,8,2,1,0,745,5,1,"CMat",5,2,3,8,4,7,1,6
"212",2,2,20,1,1,2,1,2,1,1,1,749,121,0,"CMat",121,122,NA,NA,NA,NA,NA,NA
"213",2,2,21,2,1,4,0,0,2,1,1,568,1,1,"CMat",16,11,10,13,NA,NA,NA,NA
"214",2,2,22,2,1,8,0,0,2,1,1,504,131,0,"CMat",123,124,125,126,127,128,129,130
"215",2,2,23,1,1,4,2,3,1,1,1,589,16,1,"CMat",12,16,11,14,NA,NA,NA,NA
"216",2,2,24,2,1,2,0,0,2,1,1,488,134,0,"CMat",132,133,NA,NA,NA,NA,NA,NA
"217",2,3,1,1,1,4,1,4,2,1,0,655,4,1,"CMat",4,6,1,7,NA,NA,NA,NA
"218",2,3,2,2,1,2,0,0,1,1,0,994,137,0,"CMat",135,136,NA,NA,NA,NA,NA,NA
"219",2,3,3,1,1,2,1,2,2,1,0,606,8,1,"CMat",8,1,NA,NA,NA,NA,NA,NA
"220",2,3,4,1,1,4,3,2,1,1,1,573,140,0,"CMat",138,139,140,141,NA,NA,NA,NA
"221",2,3,5,1,1,8,4,5,2,1,0,490,8,1,"CMat",3,7,4,8,5,2,1,6
"222",2,3,6,2,1,2,0,0,1,1,0,570,144,0,"CMat",142,143,NA,NA,NA,NA,NA,NA
"223",2,3,7,2,1,4,0,0,2,1,1,812,8,1,"CMat",13,15,16,9,NA,NA,NA,NA
"224",2,3,8,1,1,4,4,1,1,1,1,769,148,0,"CMat",145,146,147,148,NA,NA,NA,NA
"225",2,3,9,2,1,8,0,0,1,1,0,710,9,1,"CMat",1,5,6,8,3,4,7,2
"226",2,3,10,1,1,8,5,4,2,1,0,985,153,0,"CMat",149,150,151,152,153,154,155,156
"227",2,3,11,1,1,8,7,2,2,1,0,613,8,1,"CMat",2,5,1,6,7,4,8,3
"228",2,3,12,2,1,8,0,0,2,1,1,581,165,0,"CMat",157,158,159,160,161,162,163,164
"229",2,3,13,2,1,4,0,0,2,1,1,519,2,1,"CMat",9,15,11,12,NA,NA,NA,NA
"230",2,3,14,1,1,2,1,2,2,1,0,1231,166,0,"CMat",166,167,NA,NA,NA,NA,NA,NA
"231",2,3,15,2,1,4,0,0,2,1,1,582,6,1,"CMat",16,11,10,13,NA,NA,NA,NA
"232",2,3,16,1,1,4,3,2,2,1,0,773,170,0,"CMat",168,169,170,171,NA,NA,NA,NA
"233",2,3,17,2,1,4,0,0,1,1,0,864,10,1,"CMat",7,6,4,8,NA,NA,NA,NA
"234",2,3,18,2,1,4,0,0,1,1,0,592,176,0,"CMat",172,173,174,175,NA,NA,NA,NA
"235",2,3,19,2,1,4,0,0,2,1,1,562,4,1,"CMat",15,14,13,9,NA,NA,NA,NA
"236",2,3,20,1,1,4,1,4,2,1,0,561,177,0,"CMat",177,178,179,180,NA,NA,NA,NA
"237",2,3,21,1,1,4,1,4,2,1,0,515,4,1,"CMat",4,6,5,8,NA,NA,NA,NA
"238",2,3,22,1,1,2,2,1,1,1,1,639,182,0,"CMat",181,182,NA,NA,NA,NA,NA,NA
"239",2,3,23,2,1,2,0,0,1,1,0,537,10,1,"CMat",4,7,NA,NA,NA,NA,NA,NA
"240",2,3,24,1,1,4,1,4,2,1,0,490,183,0,"CMat",183,184,185,186,NA,NA,NA,NA
"241",2,4,1,2,1,4,0,0,1,1,0,616,14,1,"CMat",4,1,8,3,NA,NA,NA,NA
"242",2,4,2,1,1,8,8,1,1,1,1,556,194,0,"CMat",187,188,189,190,191,192,193,194
"243",2,4,3,2,1,4,0,0,2,1,1,431,1,1,"CMat",12,15,9,14,NA,NA,NA,NA
"244",2,4,4,2,1,2,0,0,1,1,0,462,197,0,"CMat",195,196,NA,NA,NA,NA,NA,NA
"245",2,4,5,1,1,2,2,1,2,1,0,431,4,1,"CMat",8,4,NA,NA,NA,NA,NA,NA
"246",2,4,6,2,1,2,0,0,2,1,1,462,200,0,"CMat",198,199,NA,NA,NA,NA,NA,NA
"247",2,4,7,1,1,8,1,8,2,1,0,527,3,1,"CMat",3,7,8,1,6,5,4,2
"248",2,4,8,2,1,2,0,0,2,1,1,442,203,0,"CMat",201,202,NA,NA,NA,NA,NA,NA
"249",2,4,9,1,1,8,8,1,1,1,1,892,16,1,"CMat",10,13,15,12,11,9,14,16
"250",2,4,10,1,1,8,5,4,1,1,1,676,208,0,"CMat",204,205,206,207,208,209,210,211
"251",2,4,11,2,1,4,0,0,1,1,0,706,16,1,"CMat",4,3,1,2,NA,NA,NA,NA
"252",2,4,12,2,1,8,0,0,1,1,0,591,220,0,"CMat",212,213,214,215,216,217,218,219
"253",2,4,13,2,1,8,0,0,1,1,0,731,11,1,"CMat",2,8,4,7,3,1,6,5
"254",2,4,14,2,1,2,0,0,2,1,1,383,223,0,"CMat",221,222,NA,NA,NA,NA,NA,NA
"255",2,4,15,1,1,4,3,2,2,1,0,761,4,1,"CMat",7,2,4,6,NA,NA,NA,NA
"256",2,4,16,2,1,2,0,0,2,1,1,428,226,0,"CMat",224,225,NA,NA,NA,NA,NA,NA
"257",2,4,17,2,1,8,0,0,1,1,0,558,9,1,"CMat",6,5,8,1,4,7,3,2
"258",2,4,18,2,1,8,0,0,2,1,1,561,235,0,"CMat",227,228,229,230,231,232,233,234
"259",2,4,19,2,1,4,0,0,2,1,1,531,1,1,"CMat",11,10,9,12,NA,NA,NA,NA
"260",2,4,20,2,1,2,0,0,2,1,1,496,238,0,"CMat",236,237,NA,NA,NA,NA,NA,NA
"261",2,4,21,1,1,8,5,4,2,1,0,768,3,1,"CMat",4,8,7,2,3,6,5,1
"262",2,4,22,2,1,2,0,0,2,1,1,403,241,0,"CMat",239,240,NA,NA,NA,NA,NA,NA
"263",2,4,23,1,1,4,1,4,2,1,0,476,1,1,"CMat",1,2,6,3,NA,NA,NA,NA
"264",2,4,24,2,1,4,0,0,2,1,1,862,246,0,"CMat",242,243,244,245,NA,NA,NA,NA
"265",2,5,1,2,1,2,0,0,1,1,0,423,16,1,"CMat",5,8,NA,NA,NA,NA,NA,NA
"266",2,5,2,1,1,4,1,4,1,1,1,764,247,0,"CMat",247,248,249,250,NA,NA,NA,NA
"267",2,5,3,1,1,2,2,1,1,1,1,530,13,1,"CMat",14,13,NA,NA,NA,NA,NA,NA
"268",2,5,4,2,1,2,0,0,1,1,0,477,253,0,"CMat",251,252,NA,NA,NA,NA,NA,NA
"269",2,5,5,1,1,2,1,2,2,1,0,461,8,1,"CMat",8,3,NA,NA,NA,NA,NA,NA
"270",2,5,6,2,1,2,0,0,2,1,1,395,256,0,"CMat",254,255,NA,NA,NA,NA,NA,NA
"271",2,5,7,2,1,2,0,0,2,1,1,479,4,1,"CMat",16,12,NA,NA,NA,NA,NA,NA
"272",2,5,8,1,1,8,7,2,2,1,0,569,263,0,"CMat",257,258,259,260,261,262,263,264
"273",2,5,9,1,1,2,1,2,2,1,0,438,1,1,"CMat",1,6,NA,NA,NA,NA,NA,NA
"274",2,5,10,1,1,2,2,1,1,1,1,679,266,0,"CMat",265,266,NA,NA,NA,NA,NA,NA
"275",2,5,11,1,1,2,1,2,1,1,1,512,15,1,"CMat",15,14,NA,NA,NA,NA,NA,NA
"276",2,5,12,2,1,2,0,0,1,1,0,477,269,0,"CMat",267,268,NA,NA,NA,NA,NA,NA
"277",2,5,13,1,1,4,3,2,1,1,1,627,14,1,"CMat",15,10,14,13,NA,NA,NA,NA
"278",2,5,14,2,1,8,0,0,2,1,1,563,278,0,"CMat",270,271,272,273,274,275,276,277
"279",2,5,15,2,1,4,0,0,2,1,1,437,3,1,"CMat",9,10,16,14,NA,NA,NA,NA
"280",2,5,16,1,1,8,3,6,1,0,0,577,281,0,"CMat",279,280,281,282,283,284,285,286
"281",2,5,17,2,1,8,0,0,2,1,1,669,8,1,"CMat",11,13,12,10,9,14,15,16
"282",2,5,18,1,1,8,2,7,1,1,1,703,288,0,"CMat",287,288,289,290,291,292,293,294
"283",2,5,19,1,1,8,6,3,2,1,0,646,3,1,"CMat",8,2,6,5,7,3,1,4
"284",2,5,20,1,1,2,2,1,2,1,0,478,296,0,"CMat",295,296,NA,NA,NA,NA,NA,NA
"285",2,5,21,1,1,4,3,2,2,1,0,852,3,1,"CMat",5,2,3,7,NA,NA,NA,NA
"286",2,5,22,2,1,4,0,0,1,1,0,630,301,0,"CMat",297,298,299,300,NA,NA,NA,NA
"287",2,5,23,2,1,8,0,0,1,1,0,640,10,1,"CMat",7,3,6,1,2,4,5,8
"288",2,5,24,2,1,4,0,0,2,1,1,524,306,0,"CMat",302,303,304,305,NA,NA,NA,NA
"289",2,6,1,1,1,2,1,2,1,1,1,486,12,1,"CMat",12,15,NA,NA,NA,NA,NA,NA
"290",2,6,2,2,1,8,0,0,1,1,0,526,315,0,"CMat",307,308,309,310,311,312,313,314
"291",2,6,3,1,1,2,1,2,1,1,1,636,16,1,"CMat",16,10,NA,NA,NA,NA,NA,NA
"292",2,6,4,2,1,8,0,0,2,1,1,832,324,0,"CMat",316,317,318,319,320,321,322,323
"293",2,6,5,1,1,2,1,2,1,1,1,418,13,1,"CMat",13,12,NA,NA,NA,NA,NA,NA
"294",2,6,6,2,1,2,0,0,2,1,1,418,327,0,"CMat",325,326,NA,NA,NA,NA,NA,NA
"295",2,6,7,1,1,2,2,1,1,1,1,438,11,1,"CMat",13,11,NA,NA,NA,NA,NA,NA
"296",2,6,8,2,1,8,0,0,2,1,1,526,336,0,"CMat",328,329,330,331,332,333,334,335
"297",2,6,9,2,1,8,0,0,2,1,1,700,8,1,"CMat",12,10,16,15,13,11,14,9
"298",2,6,10,2,1,8,0,0,1,1,0,603,345,0,"CMat",337,338,339,340,341,342,343,344
"299",2,6,11,1,1,2,1,2,1,1,1,487,12,1,"CMat",12,15,NA,NA,NA,NA,NA,NA
"300",2,6,12,1,1,8,2,7,1,1,1,590,347,0,"CMat",346,347,348,349,350,351,352,353
"301",2,6,13,1,1,4,3,2,2,1,0,1328,8,1,"CMat",2,1,8,3,NA,NA,NA,NA
"302",2,6,14,1,1,2,2,1,1,1,1,397,355,0,"CMat",354,355,NA,NA,NA,NA,NA,NA
"303",2,6,15,2,1,2,0,0,1,1,0,433,9,1,"CMat",2,7,NA,NA,NA,NA,NA,NA
"304",2,6,16,1,1,8,6,3,2,1,0,571,361,0,"CMat",356,357,358,359,360,361,362,363
"305",2,6,17,2,1,8,0,0,2,1,1,664,6,1,"CMat",11,9,13,14,15,12,10,16
"306",2,6,18,1,1,8,1,8,1,1,1,571,364,0,"CMat",364,365,366,367,368,369,370,371
"307",2,6,19,1,1,8,4,5,2,1,0,584,8,1,"CMat",4,3,5,8,6,1,7,2
"308",2,6,20,1,1,2,1,2,1,1,1,481,372,0,"CMat",372,373,NA,NA,NA,NA,NA,NA
"309",2,6,21,1,1,8,4,5,2,1,0,594,2,1,"CMat",7,3,6,2,8,1,4,5
"310",2,6,22,2,1,2,0,0,2,1,1,442,376,0,"CMat",374,375,NA,NA,NA,NA,NA,NA
"311",2,6,23,1,1,4,3,2,1,1,1,706,12,1,"CMat",10,13,12,11,NA,NA,NA,NA
"312",2,6,24,2,1,8,0,0,2,1,1,593,385,0,"CMat",377,378,379,380,381,382,383,384
"313",2,7,1,2,1,4,0,0,1,1,0,686,9,1,"CMat",6,2,1,4,NA,NA,NA,NA
"314",2,7,2,1,1,8,1,8,1,1,1,480,386,0,"CMat",386,387,388,389,390,391,392,393
"315",2,7,3,1,1,8,8,1,2,1,0,368,1,1,"CMat",6,5,2,3,7,8,4,1
"316",2,7,4,1,1,8,5,4,1,0,0,623,398,0,"CMat",394,395,396,397,398,399,400,401
"317",2,7,5,1,1,8,4,5,2,1,0,666,8,1,"CMat",6,5,4,8,7,2,1,3
"318",2,7,6,2,1,4,0,0,2,1,1,467,406,0,"CMat",402,403,404,405,NA,NA,NA,NA
"319",2,7,7,1,1,2,1,2,1,1,1,485,13,1,"CMat",13,10,NA,NA,NA,NA,NA,NA
"320",2,7,8,2,1,8,0,0,1,1,0,1070,415,0,"CMat",407,408,409,410,411,412,413,414
"321",2,7,9,1,1,8,7,2,1,1,1,647,11,1,"CMat",13,10,9,14,15,16,11,12
"322",2,7,10,1,1,8,2,7,1,1,1,618,417,0,"CMat",416,417,418,419,420,421,422,423
"323",2,7,11,2,1,8,0,0,2,1,1,596,7,1,"CMat",12,16,10,9,14,11,13,15
"324",2,7,12,2,1,2,0,0,2,1,1,414,426,0,"CMat",424,425,NA,NA,NA,NA,NA,NA
"325",2,7,13,1,1,4,2,3,1,1,1,630,10,1,"CMat",9,10,16,15,NA,NA,NA,NA
"326",2,7,14,1,1,8,4,5,1,1,1,794,430,0,"CMat",427,428,429,430,431,432,433,434
"327",2,7,15,2,1,4,0,0,2,1,1,643,6,1,"CMat",16,12,10,9,NA,NA,NA,NA
"328",2,7,16,1,1,8,6,3,2,1,0,536,440,0,"CMat",435,436,437,438,439,440,441,442
"329",2,7,17,2,1,2,0,0,1,1,0,438,14,1,"CMat",5,2,NA,NA,NA,NA,NA,NA
"330",2,7,18,2,1,4,0,0,1,1,0,490,447,0,"CMat",443,444,445,446,NA,NA,NA,NA
"331",2,7,19,1,1,2,2,1,1,1,1,427,9,1,"CMat",14,9,NA,NA,NA,NA,NA,NA
"332",2,7,20,1,1,8,1,8,2,1,0,567,448,0,"CMat",448,449,450,451,452,453,454,455
"333",2,7,21,1,1,8,1,8,1,1,1,723,9,1,"CMat",9,16,11,15,13,12,10,14
"334",2,7,22,1,1,8,3,6,1,1,1,596,458,0,"CMat",456,457,458,459,460,461,462,463
"335",2,7,23,1,1,2,1,2,1,1,1,400,13,1,"CMat",13,11,NA,NA,NA,NA,NA,NA
"336",2,7,24,2,1,4,0,0,1,1,0,533,468,0,"CMat",464,465,466,467,NA,NA,NA,NA
"337",2,8,1,2,1,2,0,0,2,1,1,2656,3,1,"CMat",10,16,NA,NA,NA,NA,NA,NA
"338",2,8,2,1,1,4,1,4,1,1,1,666,469,0,"CMat",469,470,471,472,NA,NA,NA,NA
"339",2,8,3,2,1,8,0,0,2,1,1,675,6,1,"CMat",9,16,12,15,14,10,13,11
"340",2,8,4,2,1,8,0,0,1,0,1,630,481,0,"CMat",473,474,475,476,477,478,479,480
"341",2,8,5,1,1,4,3,2,2,1,0,437,6,1,"CMat",7,2,6,3,NA,NA,NA,NA
"342",2,8,6,1,1,8,1,8,2,1,0,769,482,0,"CMat",482,483,484,485,486,487,488,489
"343",2,8,7,1,1,2,2,1,2,1,0,422,2,1,"CMat",1,2,NA,NA,NA,NA,NA,NA
"344",2,8,8,1,1,4,1,4,2,1,0,603,490,0,"CMat",490,491,492,493,NA,NA,NA,NA
"345",2,8,9,2,1,8,0,0,1,1,0,710,9,1,"CMat",4,6,3,2,8,7,1,5
"346",2,8,10,1,1,4,3,2,2,1,0,558,496,0,"CMat",494,495,496,497,NA,NA,NA,NA
"347",2,8,11,2,1,4,0,0,2,1,1,642,5,1,"CMat",14,16,9,15,NA,NA,NA,NA
"348",2,8,12,1,1,4,3,2,1,1,1,527,500,0,"CMat",498,499,500,501,NA,NA,NA,NA
"349",2,8,13,2,1,2,0,0,1,1,0,557,12,1,"CMat",3,1,NA,NA,NA,NA,NA,NA
"350",2,8,14,2,1,2,0,0,1,1,0,424,504,0,"CMat",502,503,NA,NA,NA,NA,NA,NA
"351",2,8,15,2,1,8,0,0,2,1,1,700,4,1,"CMat",16,9,15,14,11,12,13,10
"352",2,8,16,2,1,2,0,0,1,1,0,369,507,0,"CMat",505,506,NA,NA,NA,NA,NA,NA
"353",2,8,17,1,1,4,1,4,2,1,0,586,2,1,"CMat",2,4,6,3,NA,NA,NA,NA
"354",2,8,18,1,1,2,1,2,1,1,1,662,508,0,"CMat",508,509,NA,NA,NA,NA,NA,NA
"355",2,8,19,1,1,4,3,2,1,1,1,676,15,1,"CMat",13,9,15,10,NA,NA,NA,NA
"356",2,8,20,1,1,4,3,2,1,1,1,463,512,0,"CMat",510,511,512,513,NA,NA,NA,NA
"357",2,8,21,1,1,2,1,2,1,1,1,400,11,1,"CMat",11,14,NA,NA,NA,NA,NA,NA
"358",2,8,22,2,1,2,0,0,1,1,0,416,516,0,"CMat",514,515,NA,NA,NA,NA,NA,NA
"359",2,8,23,1,1,2,1,2,2,1,0,499,3,1,"CMat",3,6,NA,NA,NA,NA,NA,NA
"360",2,8,24,1,1,8,7,2,2,1,0,508,523,0,"CMat",517,518,519,520,521,522,523,524
"361",2,9,1,1,1,4,2,3,2,1,0,620,6,1,"CMat",1,6,5,8,NA,NA,NA,NA
"362",2,9,2,1,1,8,2,7,2,1,0,544,526,0,"CMat",525,526,527,528,529,530,531,532
"363",2,9,3,1,1,4,3,2,2,1,0,499,2,1,"CMat",8,5,2,7,NA,NA,NA,NA
"364",2,9,4,2,1,2,0,0,1,1,0,544,535,0,"CMat",533,534,NA,NA,NA,NA,NA,NA
"365",2,9,5,1,1,8,3,6,2,1,0,958,5,1,"CMat",6,3,5,1,8,2,7,4
"366",2,9,6,2,1,2,0,0,1,1,0,538,538,0,"CMat",536,537,NA,NA,NA,NA,NA,NA
"367",2,9,7,1,1,2,1,2,2,1,0,424,3,1,"CMat",3,1,NA,NA,NA,NA,NA,NA
"368",2,9,8,1,1,8,7,2,1,1,1,485,545,0,"CMat",539,540,541,542,543,544,545,546
"369",2,9,9,1,1,4,1,4,2,1,0,523,2,1,"CMat",2,5,1,6,NA,NA,NA,NA
"370",2,9,10,1,1,8,8,1,2,1,0,386,554,0,"CMat",547,548,549,550,551,552,553,554
"371",2,9,11,1,1,2,1,2,1,1,1,421,13,1,"CMat",13,10,NA,NA,NA,NA,NA,NA
"372",2,9,12,2,1,8,0,0,1,1,0,542,563,0,"CMat",555,556,557,558,559,560,561,562
"373",2,9,13,1,1,4,3,2,2,1,0,817,5,1,"CMat",2,1,5,4,NA,NA,NA,NA
"374",2,9,14,2,1,2,0,0,1,1,0,483,566,0,"CMat",564,565,NA,NA,NA,NA,NA,NA
"375",2,9,15,2,1,4,0,0,2,1,1,488,8,1,"CMat",11,13,9,15,NA,NA,NA,NA
"376",2,9,16,2,1,4,0,0,1,1,0,458,571,0,"CMat",567,568,569,570,NA,NA,NA,NA
"377",2,9,17,2,1,4,0,0,2,1,1,673,8,1,"CMat",12,9,15,16,NA,NA,NA,NA
"378",2,9,18,1,1,2,1,2,1,1,1,552,572,0,"CMat",572,573,NA,NA,NA,NA,NA,NA
"379",2,9,19,1,1,2,2,1,1,1,1,422,14,1,"CMat",15,14,NA,NA,NA,NA,NA,NA
"380",2,9,20,2,1,2,0,0,1,1,0,456,576,0,"CMat",574,575,NA,NA,NA,NA,NA,NA
"381",2,9,21,1,1,2,1,2,2,1,0,426,8,1,"CMat",8,5,NA,NA,NA,NA,NA,NA
"382",2,9,22,2,1,4,0,0,1,1,0,526,581,0,"CMat",577,578,579,580,NA,NA,NA,NA
"383",2,9,23,2,1,4,0,0,2,1,1,434,7,1,"CMat",14,9,11,10,NA,NA,NA,NA
"384",2,9,24,2,1,4,0,0,2,1,1,484,586,0,"CMat",582,583,584,585,NA,NA,NA,NA
"385",3,2,1,1,1,4,2,3,2,1,0,1228,6,1,"CMat",1,6,3,5,NA,NA,NA,NA
"386",3,2,2,2,1,8,0,0,1,0,1,1336,77,0,"CMat",69,70,71,72,73,74,75,76
"387",3,2,3,1,1,8,1,8,1,1,1,1175,9,1,"CMat",9,13,16,15,12,11,14,10
"388",3,2,4,1,1,8,8,1,1,1,1,615,85,0,"CMat",78,79,80,81,82,83,84,85
"389",3,2,5,2,1,4,0,0,1,1,0,888,12,1,"CMat",2,1,8,4,NA,NA,NA,NA
"390",3,2,6,1,1,8,2,7,1,0,0,932,87,0,"CMat",86,87,88,89,90,91,92,93
"391",3,2,7,1,1,2,1,2,1,1,1,1331,13,1,"CMat",13,12,NA,NA,NA,NA,NA,NA
"392",3,2,8,2,1,8,0,0,2,0,0,1594,102,0,"CMat",94,95,96,97,98,99,100,101
"393",3,2,10,2,1,8,0,0,2,0,0,2259,111,0,"CMat",103,104,105,106,107,108,109,110
"394",3,2,11,2,1,8,0,0,2,1,1,813,1,1,"CMat",11,15,16,9,10,14,13,12
"395",3,2,12,1,1,4,1,4,1,1,1,1059,112,0,"CMat",112,113,114,115,NA,NA,NA,NA
"396",3,2,13,2,1,4,0,0,2,1,1,802,3,1,"CMat",9,11,15,14,NA,NA,NA,NA
"397",3,2,14,2,1,4,0,0,1,1,0,1062,120,0,"CMat",116,117,118,119,NA,NA,NA,NA
"398",3,2,15,2,1,4,0,0,1,1,0,1125,11,1,"CMat",3,8,5,1,NA,NA,NA,NA
"399",3,2,16,1,1,2,1,2,1,1,1,1402,121,0,"CMat",121,122,NA,NA,NA,NA,NA,NA
"400",3,2,17,2,1,8,0,0,1,1,0,822,15,1,"CMat",1,8,4,5,7,3,2,6
"401",3,2,18,2,1,4,0,0,1,0,1,1469,127,0,"CMat",123,124,125,126,NA,NA,NA,NA
"402",3,2,19,2,1,4,0,0,1,1,0,763,13,1,"CMat",2,3,8,4,NA,NA,NA,NA
"403",3,2,21,2,1,2,0,0,1,1,0,2039,13,1,"CMat",6,5,NA,NA,NA,NA,NA,NA
"404",3,2,22,1,1,4,3,2,1,1,1,589,132,0,"CMat",130,131,132,133,NA,NA,NA,NA
"405",3,2,23,1,1,8,7,2,2,1,0,906,7,1,"CMat",1,4,3,8,6,5,7,2
"406",3,2,24,2,1,4,0,0,1,0,1,989,138,0,"CMat",134,135,136,137,NA,NA,NA,NA
"407",3,3,1,2,1,8,0,0,1,1,0,918,16,1,"CMat",4,3,8,7,6,2,1,5
"408",3,3,2,2,1,8,0,0,1,0,1,3567,147,0,"CMat",139,140,141,142,143,144,145,146
"409",3,3,3,1,1,4,4,1,1,1,1,3194,12,1,"CMat",11,14,13,12,NA,NA,NA,NA
"410",3,3,4,1,1,4,4,1,2,1,0,655,151,0,"CMat",148,149,150,151,NA,NA,NA,NA
"411",3,3,5,2,1,2,0,0,2,1,1,682,4,1,"CMat",15,12,NA,NA,NA,NA,NA,NA
"412",3,3,6,1,1,8,5,4,2,0,1,3082,156,0,"CMat",152,153,154,155,156,157,158,159
"413",3,3,7,2,1,4,0,0,2,1,1,952,5,1,"CMat",14,15,11,13,NA,NA,NA,NA
"414",3,3,8,1,1,8,1,8,1,0,0,1472,160,0,"CMat",160,161,162,163,164,165,166,167
"415",3,3,9,2,1,8,0,0,1,1,0,969,11,1,"CMat",7,8,4,6,2,3,1,5
"416",3,3,10,1,1,8,7,2,2,1,0,879,174,0,"CMat",168,169,170,171,172,173,174,175
"417",3,3,11,1,1,4,4,1,2,1,0,742,7,1,"CMat",3,5,6,7,NA,NA,NA,NA
"418",3,3,12,2,1,2,0,0,2,0,0,2329,178,0,"CMat",176,177,NA,NA,NA,NA,NA,NA
"419",3,3,13,2,1,2,0,0,2,1,1,1281,4,1,"CMat",12,10,NA,NA,NA,NA,NA,NA
"420",3,3,14,1,1,2,1,2,1,1,1,1138,179,0,"CMat",179,180,NA,NA,NA,NA,NA,NA
"421",3,3,15,2,1,8,0,0,2,1,1,841,1,1,"CMat",12,13,14,9,16,10,11,15
"422",3,3,16,1,1,4,2,3,2,1,0,1038,182,0,"CMat",181,182,183,184,NA,NA,NA,NA
"423",3,3,17,2,1,2,0,0,2,1,1,681,1,1,"CMat",14,11,NA,NA,NA,NA,NA,NA
"424",3,3,18,1,1,8,3,6,2,1,0,1262,187,0,"CMat",185,186,187,188,189,190,191,192
"425",3,3,19,1,1,2,2,1,2,1,0,912,7,1,"CMat",8,7,NA,NA,NA,NA,NA,NA
"426",3,3,20,1,1,4,2,3,1,1,1,1251,194,0,"CMat",193,194,195,196,NA,NA,NA,NA
"427",3,3,21,1,1,2,1,2,2,1,0,821,4,1,"CMat",4,2,NA,NA,NA,NA,NA,NA
"428",3,3,22,1,1,4,1,4,1,1,1,1066,197,0,"CMat",197,198,199,200,NA,NA,NA,NA
"429",3,3,23,1,1,8,8,1,1,1,1,483,12,1,"CMat",10,15,11,14,9,13,16,12
"430",3,3,24,1,1,4,2,3,1,1,1,3331,202,0,"CMat",201,202,203,204,NA,NA,NA,NA
"431",3,4,1,2,1,4,0,0,1,1,0,1236,9,1,"CMat",2,1,6,7,NA,NA,NA,NA
"432",3,4,2,1,1,2,1,2,2,1,0,918,205,0,"CMat",205,206,NA,NA,NA,NA,NA,NA
"433",3,4,3,1,1,8,1,8,1,1,1,549,14,1,"CMat",14,15,13,11,9,16,10,12
"434",3,4,4,1,1,2,1,2,2,1,0,1121,207,0,"CMat",207,208,NA,NA,NA,NA,NA,NA
"435",3,4,5,1,1,8,8,1,1,1,1,488,15,1,"CMat",9,12,16,11,14,10,13,15
"436",3,4,6,2,1,4,0,0,1,0,1,1341,213,0,"CMat",209,210,211,212,NA,NA,NA,NA
"437",3,4,7,1,1,2,2,1,1,1,1,892,10,1,"CMat",14,10,NA,NA,NA,NA,NA,NA
"438",3,4,8,1,1,8,3,6,2,1,0,788,216,0,"CMat",214,215,216,217,218,219,220,221
"439",3,4,9,1,1,8,1,8,2,1,0,744,3,1,"CMat",3,1,5,6,8,7,4,2
"440",3,4,10,2,1,8,0,0,1,0,1,2761,230,0,"CMat",222,223,224,225,226,227,228,229
"441",3,4,11,1,1,4,4,1,2,1,0,1301,7,1,"CMat",1,8,2,7,NA,NA,NA,NA
"442",3,4,12,1,1,8,2,7,2,1,0,3005,232,0,"CMat",231,232,233,234,235,236,237,238
"443",3,4,13,2,1,2,0,0,1,1,0,1417,9,1,"CMat",3,6,NA,NA,NA,NA,NA,NA
"444",3,4,14,1,1,2,1,2,1,1,1,1955,239,0,"CMat",239,240,NA,NA,NA,NA,NA,NA
"445",3,4,15,2,1,4,0,0,1,1,0,687,10,1,"CMat",6,2,1,5,NA,NA,NA,NA
"446",3,4,17,1,1,4,1,4,1,1,1,739,11,1,"CMat",11,9,10,16,NA,NA,NA,NA
"447",3,4,18,2,1,4,0,0,1,0,1,1899,248,0,"CMat",244,245,246,247,NA,NA,NA,NA
"448",3,4,19,2,1,2,0,0,2,1,1,1667,1,1,"CMat",11,9,NA,NA,NA,NA,NA,NA
"449",3,4,21,1,1,2,1,2,1,1,1,2468,14,1,"CMat",14,10,NA,NA,NA,NA,NA,NA
"450",3,4,23,1,1,2,2,1,2,1,0,702,8,1,"CMat",1,8,NA,NA,NA,NA,NA,NA
"451",3,4,24,2,1,2,0,0,2,0,0,1587,262,0,"CMat",260,261,NA,NA,NA,NA,NA,NA
"452",3,5,1,2,1,8,0,0,1,1,0,646,10,1,"CMat",6,8,2,7,5,4,1,3
"453",3,5,2,2,1,2,0,0,1,1,0,2238,265,0,"CMat",263,264,NA,NA,NA,NA,NA,NA
"454",3,5,3,2,1,4,0,0,2,1,1,718,8,1,"CMat",15,13,11,10,NA,NA,NA,NA
"455",3,5,4,2,1,2,0,0,1,1,0,2578,268,0,"CMat",266,267,NA,NA,NA,NA,NA,NA
"456",3,5,5,1,1,8,6,3,1,1,1,784,9,1,"CMat",10,12,15,14,11,9,13,16
"457",3,5,6,1,1,8,7,2,1,1,1,780,275,0,"CMat",269,270,271,272,273,274,275,276
"458",3,5,7,2,1,8,0,0,1,1,0,2594,9,1,"CMat",4,7,1,5,8,2,6,3
"459",3,5,8,2,1,2,0,0,1,0,1,3163,279,0,"CMat",277,278,NA,NA,NA,NA,NA,NA
"460",3,5,9,2,1,2,0,0,2,1,1,721,1,1,"CMat",12,16,NA,NA,NA,NA,NA,NA
"461",3,5,10,2,1,2,0,0,1,1,0,1016,282,0,"CMat",280,281,NA,NA,NA,NA,NA,NA
"462",3,5,11,2,1,8,0,0,2,1,1,2675,8,1,"CMat",13,15,16,11,14,9,10,12
"463",3,5,12,2,1,2,0,0,1,1,0,2075,285,0,"CMat",283,284,NA,NA,NA,NA,NA,NA
"464",3,5,13,2,1,2,0,0,1,1,0,749,15,1,"CMat",1,6,NA,NA,NA,NA,NA,NA
"465",3,5,14,1,1,4,1,4,2,1,0,1349,286,0,"CMat",286,287,288,289,NA,NA,NA,NA
"466",3,5,15,2,1,8,0,0,1,1,0,643,16,1,"CMat",8,4,5,6,2,3,1,7
"467",3,5,16,1,1,8,6,3,2,1,0,936,295,0,"CMat",290,291,292,293,294,295,296,297
"468",3,5,17,2,1,2,0,0,1,1,0,711,9,1,"CMat",3,6,NA,NA,NA,NA,NA,NA
"469",3,5,18,2,1,4,0,0,1,0,1,3823,302,0,"CMat",298,299,300,301,NA,NA,NA,NA
"470",3,5,21,2,1,8,0,0,2,1,1,1801,3,1,"CMat",16,11,9,14,15,12,10,13
"471",3,5,23,1,1,4,3,2,1,1,1,1118,9,1,"CMat",10,15,9,11,NA,NA,NA,NA
"472",3,5,24,1,1,2,2,1,2,1,0,612,315,0,"CMat",314,315,NA,NA,NA,NA,NA,NA
"473",3,6,1,1,1,4,1,4,2,1,0,468,7,1,"CMat",7,3,2,4,NA,NA,NA,NA
"474",3,6,2,2,1,8,0,0,1,0,1,898,324,0,"CMat",316,317,318,319,320,321,322,323
"475",3,6,3,1,1,2,2,1,2,1,0,434,4,1,"CMat",8,4,NA,NA,NA,NA,NA,NA
"476",3,6,4,1,1,8,6,3,1,1,1,699,330,0,"CMat",325,326,327,328,329,330,331,332
"477",3,6,5,2,1,4,0,0,2,1,1,1161,7,1,"CMat",10,11,14,9,NA,NA,NA,NA
"478",3,6,6,2,1,2,0,0,2,0,0,2490,335,0,"CMat",333,334,NA,NA,NA,NA,NA,NA
"479",3,6,7,2,1,4,0,0,1,1,0,3872,14,1,"CMat",7,1,8,2,NA,NA,NA,NA
"480",3,6,8,2,1,8,0,0,2,0,0,3923,344,0,"CMat",336,337,338,339,340,341,342,343
"481",3,6,10,2,1,8,0,0,2,0,0,1102,353,0,"CMat",345,346,347,348,349,350,351,352
"482",3,6,11,1,1,8,6,3,1,1,1,454,15,1,"CMat",9,16,12,14,13,15,10,11
"483",3,6,13,1,1,2,1,2,2,0,1,1404,9,1,"CMat",9,13,NA,NA,NA,NA,NA,NA
"484",3,6,16,1,1,8,4,5,2,1,0,1178,6,1,"CMat",5,2,7,6,4,1,8,3
"485",3,6,17,1,1,4,2,3,2,1,0,611,372,0,"CMat",371,372,373,374,NA,NA,NA,NA
"486",3,6,18,1,1,4,2,3,1,1,1,501,14,1,"CMat",15,14,10,11,NA,NA,NA,NA
"487",3,6,19,2,1,2,0,0,1,0,1,2819,377,0,"CMat",375,376,NA,NA,NA,NA,NA,NA
"488",3,6,20,2,1,4,0,0,1,1,0,1372,13,1,"CMat",4,5,1,6,NA,NA,NA,NA
"489",3,6,21,1,1,8,6,3,2,1,0,886,383,0,"CMat",378,379,380,381,382,383,384,385
"490",3,6,22,2,1,4,0,0,1,0,1,2092,8,1,"CMat",16,15,9,10,NA,NA,NA,NA
"491",3,6,23,2,1,4,0,0,2,1,1,1856,390,0,"CMat",386,387,388,389,NA,NA,NA,NA
"492",3,7,1,2,1,8,0,0,2,1,1,590,2,1,"CMat",14,15,12,10,13,16,11,9
"493",3,7,2,1,1,8,5,4,1,1,1,872,395,0,"CMat",391,392,393,394,395,396,397,398
"494",3,7,3,2,1,4,0,0,1,0,1,2607,5,1,"CMat",12,16,9,14,NA,NA,NA,NA
"495",3,7,4,2,1,2,0,0,1,0,1,1547,401,0,"CMat",399,400,NA,NA,NA,NA,NA,NA
"496",3,7,5,2,1,2,0,0,1,0,1,353,8,1,"CMat",12,16,NA,NA,NA,NA,NA,NA
"497",3,7,6,1,1,2,1,2,2,0,1,790,402,0,"CMat",402,403,NA,NA,NA,NA,NA,NA
"498",3,7,7,2,1,8,0,0,1,1,0,3115,11,1,"CMat",2,6,7,4,1,3,5,8
"499",3,7,8,1,1,8,8,1,1,1,1,1614,411,0,"CMat",404,405,406,407,408,409,410,411
"500",3,7,9,2,1,2,0,0,2,1,1,818,5,1,"CMat",16,14,NA,NA,NA,NA,NA,NA
"501",3,7,10,2,1,2,0,0,2,0,0,3188,414,0,"CMat",412,413,NA,NA,NA,NA,NA,NA
"502",3,7,11,1,1,2,1,2,2,1,0,2233,2,1,"CMat",2,3,NA,NA,NA,NA,NA,NA
"503",3,7,12,2,1,2,0,0,1,0,1,2816,417,0,"CMat",415,416,NA,NA,NA,NA,NA,NA
"504",3,7,13,2,1,8,0,0,1,1,0,1268,15,1,"CMat",7,8,2,5,4,1,3,6
"505",3,7,15,1,1,4,3,2,2,1,0,794,4,1,"CMat",8,2,4,7,NA,NA,NA,NA
"506",3,7,17,2,1,4,0,0,1,1,0,3150,15,1,"CMat",6,5,3,4,NA,NA,NA,NA
"507",3,7,18,2,1,4,0,0,2,0,0,3815,429,0,"CMat",425,426,427,428,NA,NA,NA,NA
"508",3,7,20,2,1,2,0,0,2,1,1,1671,432,0,"CMat",430,431,NA,NA,NA,NA,NA,NA
"509",3,7,21,1,1,4,2,3,2,1,0,2222,4,1,"CMat",5,4,3,7,NA,NA,NA,NA
"510",3,7,23,1,1,8,7,2,1,0,0,2953,8,1,"CMat",1,3,2,6,7,4,8,5
"511",3,7,24,1,1,4,4,1,1,1,1,2601,438,0,"CMat",435,436,437,438,NA,NA,NA,NA
"512",3,8,1,1,1,4,1,4,1,1,1,940,16,1,"CMat",16,14,10,15,NA,NA,NA,NA
"513",3,8,2,2,1,8,0,0,1,0,1,1190,447,0,"CMat",439,440,441,442,443,444,445,446
"514",3,8,3,2,1,8,0,0,1,0,1,411,3,1,"CMat",15,9,11,13,16,10,12,14
"515",3,8,4,1,1,4,4,1,1,1,1,2002,451,0,"CMat",448,449,450,451,NA,NA,NA,NA
"516",3,8,5,2,1,8,0,0,1,1,0,614,9,1,"CMat",2,6,7,3,4,8,1,5
"517",3,8,6,2,1,8,0,0,1,1,0,1852,460,0,"CMat",452,453,454,455,456,457,458,459
"518",3,8,7,1,1,8,8,1,2,1,0,406,6,1,"CMat",3,8,2,1,5,7,4,6
"519",3,8,9,2,1,2,0,0,2,1,1,2834,8,1,"CMat",13,11,NA,NA,NA,NA,NA,NA
"520",3,8,10,1,1,2,1,2,1,1,1,2179,464,0,"CMat",464,465,NA,NA,NA,NA,NA,NA
"521",3,8,11,1,1,4,3,2,2,1,0,582,3,1,"CMat",8,4,3,7,NA,NA,NA,NA
"522",3,8,12,2,1,8,0,0,1,0,1,1373,474,0,"CMat",466,467,468,469,470,471,472,473
"523",3,8,13,1,1,8,1,8,1,1,1,2027,15,1,"CMat",15,12,9,11,16,13,10,14
"524",3,8,14,2,1,4,0,0,1,1,0,3104,479,0,"CMat",475,476,477,478,NA,NA,NA,NA
"525",3,8,15,1,1,2,2,1,1,1,1,1032,12,1,"CMat",13,12,NA,NA,NA,NA,NA,NA
"526",3,8,16,2,1,2,0,0,1,1,0,784,482,0,"CMat",480,481,NA,NA,NA,NA,NA,NA
"527",3,8,17,1,1,8,2,7,1,1,1,533,16,1,"CMat",14,16,12,10,9,15,13,11
"528",3,8,18,2,1,8,0,0,1,0,1,704,491,0,"CMat",483,484,485,486,487,488,489,490
"529",3,8,19,1,1,8,4,5,1,1,1,520,13,1,"CMat",16,10,15,13,9,11,14,12
"530",3,8,20,2,1,8,0,0,2,0,0,515,500,0,"CMat",492,493,494,495,496,497,498,499
"531",3,8,22,1,1,8,8,1,2,1,0,405,508,0,"CMat",501,502,503,504,505,506,507,508
"532",3,8,23,1,1,2,2,1,1,1,1,297,12,1,"CMat",13,12,NA,NA,NA,NA,NA,NA
"533",3,9,1,2,1,2,0,0,1,1,0,912,13,1,"CMat",1,4,NA,NA,NA,NA,NA,NA
"534",3,9,2,1,1,4,3,2,2,1,0,548,513,0,"CMat",511,512,513,514,NA,NA,NA,NA
"535",3,9,3,2,1,2,0,0,1,1,0,642,16,1,"CMat",8,7,NA,NA,NA,NA,NA,NA
"536",3,9,4,1,1,4,4,1,2,1,0,498,518,0,"CMat",515,516,517,518,NA,NA,NA,NA
"537",3,9,5,2,1,8,0,0,1,1,0,722,10,1,"CMat",3,2,4,1,8,7,5,6
"538",3,9,6,2,1,8,0,0,1,0,1,1317,527,0,"CMat",519,520,521,522,523,524,525,526
"539",3,9,7,1,1,2,2,1,1,1,1,1684,9,1,"CMat",15,9,NA,NA,NA,NA,NA,NA
"540",3,9,8,1,1,4,3,2,1,1,1,1959,530,0,"CMat",528,529,530,531,NA,NA,NA,NA
"541",3,9,9,1,1,2,1,2,2,1,0,1133,4,1,"CMat",4,8,NA,NA,NA,NA,NA,NA
"542",3,9,10,1,1,8,6,3,2,1,0,1136,537,0,"CMat",532,533,534,535,536,537,538,539
"543",3,9,11,1,1,4,3,2,2,1,0,684,4,1,"CMat",7,6,4,3,NA,NA,NA,NA
"544",3,9,12,1,1,4,4,1,1,1,1,280,543,0,"CMat",540,541,542,543,NA,NA,NA,NA
"545",3,9,13,2,1,2,0,0,2,1,1,626,3,1,"CMat",9,14,NA,NA,NA,NA,NA,NA
"546",3,9,14,2,1,8,0,0,1,0,1,966,552,0,"CMat",544,545,546,547,548,549,550,551
"547",3,9,15,2,1,8,0,0,2,1,1,723,3,1,"CMat",13,15,16,9,10,11,14,12
"548",3,9,16,2,1,8,0,0,1,0,1,2215,561,0,"CMat",553,554,555,556,557,558,559,560
"549",3,9,17,2,1,4,0,0,2,1,1,1048,8,1,"CMat",11,10,9,14,NA,NA,NA,NA
"550",3,9,18,1,1,8,3,6,2,1,0,669,564,0,"CMat",562,563,564,565,566,567,568,569
"551",3,9,19,2,1,8,0,0,1,0,1,551,8,1,"CMat",16,15,11,10,14,12,9,13
"552",3,9,20,2,1,8,0,0,2,1,1,1998,578,0,"CMat",570,571,572,573,574,575,576,577
"553",3,9,21,2,1,2,0,0,1,1,0,2866,11,1,"CMat",6,5,NA,NA,NA,NA,NA,NA
"554",3,9,22,1,1,8,4,5,2,1,0,768,582,0,"CMat",579,580,581,582,583,584,585,586
"555",3,9,23,2,1,2,0,0,1,0,1,3014,5,1,"CMat",9,12,NA,NA,NA,NA,NA,NA
"556",4,2,1,2,1,8,0,0,2,1,1,919,6,1,"CMat",9,12,10,14,16,13,11,15
"557",4,2,2,1,1,8,1,8,1,1,1,705,80,0,"CMat",80,81,82,83,84,85,86,87
"558",4,2,3,1,1,4,1,4,2,1,0,463,5,1,"CMat",5,1,8,3,NA,NA,NA,NA
"559",4,2,4,1,1,2,2,1,2,1,0,342,89,0,"CMat",88,89,NA,NA,NA,NA,NA,NA
"560",4,2,5,1,1,2,2,1,2,1,0,325,7,1,"CMat",6,7,NA,NA,NA,NA,NA,NA
"561",4,2,6,2,1,2,0,0,1,1,0,562,92,0,"CMat",90,91,NA,NA,NA,NA,NA,NA
"562",4,2,7,1,1,4,3,2,1,1,1,557,16,1,"CMat",13,15,16,14,NA,NA,NA,NA
"563",4,2,8,1,1,8,6,3,1,1,1,590,98,0,"CMat",93,94,95,96,97,98,99,100
"564",4,2,9,2,1,8,0,0,1,1,0,1283,14,1,"CMat",6,8,7,4,5,2,3,1
"565",4,2,10,1,1,8,7,2,2,1,0,717,107,0,"CMat",101,102,103,104,105,106,107,108
"566",4,2,11,2,1,4,0,0,2,1,1,657,7,1,"CMat",9,11,10,16,NA,NA,NA,NA
"567",4,2,12,1,1,8,1,8,1,1,1,605,109,0,"CMat",109,110,111,112,113,114,115,116
"568",4,2,13,1,1,4,3,2,2,1,0,446,8,1,"CMat",1,4,8,6,NA,NA,NA,NA
"569",4,2,14,1,1,8,4,5,1,1,1,568,120,0,"CMat",117,118,119,120,121,122,123,124
"570",4,2,15,2,1,8,0,0,1,0,1,726,6,1,"CMat",9,12,10,15,14,16,11,13
"571",4,2,16,2,1,4,0,0,2,1,1,599,129,0,"CMat",125,126,127,128,NA,NA,NA,NA
"572",4,2,17,1,1,4,1,4,2,1,0,432,2,1,"CMat",2,8,1,7,NA,NA,NA,NA
"573",4,2,18,1,1,8,4,5,2,1,0,588,133,0,"CMat",130,131,132,133,134,135,136,137
"574",4,2,19,1,1,2,2,1,1,1,1,432,16,1,"CMat",9,16,NA,NA,NA,NA,NA,NA
"575",4,2,20,1,1,2,2,1,2,1,0,403,139,0,"CMat",138,139,NA,NA,NA,NA,NA,NA
"576",4,2,21,2,1,8,0,0,2,1,1,583,1,1,"CMat",12,11,15,9,14,10,13,16
"577",4,2,22,1,1,8,1,8,2,1,0,638,140,0,"CMat",140,141,142,143,144,145,146,147
"578",4,2,23,1,1,8,5,4,2,1,0,601,5,1,"CMat",8,1,3,2,5,6,4,7
"579",4,2,24,2,1,8,0,0,1,1,0,638,156,0,"CMat",148,149,150,151,152,153,154,155
"580",4,3,1,2,1,8,0,0,2,1,1,838,3,1,"CMat",9,12,10,11,13,16,15,14
"581",4,3,2,2,1,8,0,0,1,1,0,888,165,0,"CMat",157,158,159,160,161,162,163,164
"582",4,3,3,1,1,4,3,2,2,1,0,502,1,1,"CMat",5,4,1,8,NA,NA,NA,NA
"583",4,3,4,2,1,8,0,0,1,1,0,528,174,0,"CMat",166,167,168,169,170,171,172,173
"584",4,3,5,2,1,8,0,0,1,1,0,583,13,1,"CMat",8,7,6,4,2,3,5,1
"585",4,3,6,1,1,8,3,6,1,1,1,573,177,0,"CMat",175,176,177,178,179,180,181,182
"586",4,3,7,2,1,2,0,0,2,1,1,499,4,1,"CMat",12,10,NA,NA,NA,NA,NA,NA
"587",4,3,8,2,1,2,0,0,2,1,1,440,185,0,"CMat",183,184,NA,NA,NA,NA,NA,NA
"588",4,3,9,1,1,4,4,1,1,1,1,488,11,1,"CMat",16,12,9,11,NA,NA,NA,NA
"589",4,3,10,2,1,2,0,0,2,1,1,376,188,0,"CMat",186,187,NA,NA,NA,NA,NA,NA
"590",4,3,11,2,1,4,0,0,1,1,0,570,13,1,"CMat",5,1,8,7,NA,NA,NA,NA
"591",4,3,12,1,1,4,4,1,2,1,0,346,192,0,"CMat",189,190,191,192,NA,NA,NA,NA
"592",4,3,13,2,1,2,0,0,2,1,1,480,2,1,"CMat",16,14,NA,NA,NA,NA,NA,NA
"593",4,3,14,2,1,8,0,0,2,1,1,458,201,0,"CMat",193,194,195,196,197,198,199,200
"594",4,3,15,2,1,2,0,0,1,1,0,453,13,1,"CMat",6,7,NA,NA,NA,NA,NA,NA
"595",4,3,16,1,1,2,1,2,1,1,1,461,202,0,"CMat",202,203,NA,NA,NA,NA,NA,NA
"596",4,3,17,2,1,2,0,0,1,1,0,407,12,1,"CMat",7,3,NA,NA,NA,NA,NA,NA
"597",4,3,18,2,1,4,0,0,1,1,0,492,208,0,"CMat",204,205,206,207,NA,NA,NA,NA
"598",4,3,19,1,1,8,1,8,1,1,1,997,15,1,"CMat",15,16,13,14,10,9,12,11
"599",4,3,20,2,1,8,0,0,2,1,1,577,217,0,"CMat",209,210,211,212,213,214,215,216
"600",4,3,21,1,1,2,1,2,2,1,0,407,5,1,"CMat",5,7,NA,NA,NA,NA,NA,NA
"601",4,3,22,2,1,4,0,0,2,1,1,405,222,0,"CMat",218,219,220,221,NA,NA,NA,NA
"602",4,3,23,1,1,8,7,2,1,1,1,585,13,1,"CMat",10,15,12,14,9,11,13,16
"603",4,3,24,2,1,2,0,0,1,1,0,531,225,0,"CMat",223,224,NA,NA,NA,NA,NA,NA
"604",4,4,1,2,1,8,0,0,2,1,1,454,8,1,"CMat",15,10,9,14,16,13,12,11
"605",4,4,2,1,1,4,4,1,2,1,0,458,229,0,"CMat",226,227,228,229,NA,NA,NA,NA
"606",4,4,3,2,1,8,0,0,2,1,1,397,5,1,"CMat",15,16,11,9,10,14,13,12
"607",4,4,4,1,1,2,1,2,1,1,1,528,230,0,"CMat",230,231,NA,NA,NA,NA,NA,NA
"608",4,4,5,1,1,4,1,4,2,1,0,732,3,1,"CMat",3,5,8,7,NA,NA,NA,NA
"609",4,4,6,1,1,2,2,1,2,1,0,402,233,0,"CMat",232,233,NA,NA,NA,NA,NA,NA
"610",4,4,7,1,1,4,1,4,2,1,0,563,8,1,"CMat",8,5,2,6,NA,NA,NA,NA
"611",4,4,8,2,1,8,0,0,2,1,1,496,242,0,"CMat",234,235,236,237,238,239,240,241
"612",4,4,9,2,1,8,0,0,2,1,1,617,1,1,"CMat",9,16,10,13,12,15,11,14
"613",4,4,10,2,1,4,0,0,2,1,1,605,247,0,"CMat",243,244,245,246,NA,NA,NA,NA
"614",4,4,11,2,1,4,0,0,2,1,1,743,6,1,"CMat",15,13,10,14,NA,NA,NA,NA
"615",4,4,12,2,1,4,0,0,2,1,1,527,252,0,"CMat",248,249,250,251,NA,NA,NA,NA
"616",4,4,13,1,1,2,2,1,1,1,1,447,12,1,"CMat",10,12,NA,NA,NA,NA,NA,NA
"617",4,4,14,1,1,8,8,1,1,0,0,581,260,0,"CMat",253,254,255,256,257,258,259,260
"618",4,4,15,2,1,8,0,0,1,1,0,849,9,1,"CMat",8,1,2,4,3,6,7,5
"619",4,4,16,1,1,2,1,2,1,1,1,451,261,0,"CMat",261,262,NA,NA,NA,NA,NA,NA
"620",4,4,17,1,1,4,4,1,2,1,0,370,3,1,"CMat",7,1,6,3,NA,NA,NA,NA
"621",4,4,18,2,1,4,0,0,2,1,1,546,267,0,"CMat",263,264,265,266,NA,NA,NA,NA
"622",4,4,19,2,1,2,0,0,2,1,1,504,8,1,"CMat",12,15,NA,NA,NA,NA,NA,NA
"623",4,4,20,2,1,4,0,0,2,1,1,458,272,0,"CMat",268,269,270,271,NA,NA,NA,NA
"624",4,4,21,1,1,2,1,2,1,1,1,588,13,1,"CMat",13,9,NA,NA,NA,NA,NA,NA
"625",4,4,22,1,1,2,2,1,1,1,1,392,274,0,"CMat",273,274,NA,NA,NA,NA,NA,NA
"626",4,4,23,2,1,4,0,0,2,1,1,722,7,1,"CMat",9,13,12,11,NA,NA,NA,NA
"627",4,4,24,2,1,2,0,0,2,1,1,471,277,0,"CMat",275,276,NA,NA,NA,NA,NA,NA
"628",4,5,1,2,1,8,0,0,1,1,0,990,11,1,"CMat",6,5,7,2,3,1,8,4
"629",4,5,2,1,1,8,8,1,2,1,0,567,285,0,"CMat",278,279,280,281,282,283,284,285
"630",4,5,3,2,1,4,0,0,1,1,0,738,11,1,"CMat",7,1,4,3,NA,NA,NA,NA
"631",4,5,4,1,1,8,5,4,1,1,1,724,290,0,"CMat",286,287,288,289,290,291,292,293
"632",4,5,5,1,1,8,3,6,2,1,0,652,2,1,"CMat",1,8,2,4,3,7,6,5
"633",4,5,6,2,1,4,0,0,2,1,1,535,298,0,"CMat",294,295,296,297,NA,NA,NA,NA
"634",4,5,7,1,1,4,4,1,2,1,0,460,5,1,"CMat",8,3,4,5,NA,NA,NA,NA
"635",4,5,8,1,1,2,2,1,1,1,1,395,300,0,"CMat",299,300,NA,NA,NA,NA,NA,NA
"636",4,5,9,1,1,2,1,2,1,1,1,545,16,1,"CMat",16,11,NA,NA,NA,NA,NA,NA
"637",4,5,10,1,1,2,1,2,2,1,0,470,301,0,"CMat",301,302,NA,NA,NA,NA,NA,NA
"638",4,5,11,2,1,8,0,0,2,1,1,680,8,1,"CMat",10,14,15,16,12,13,11,9
"639",4,5,12,1,1,4,1,4,2,1,0,629,303,0,"CMat",303,304,305,306,NA,NA,NA,NA
"640",4,5,13,2,1,4,0,0,2,1,1,653,1,1,"CMat",13,16,15,12,NA,NA,NA,NA
"641",4,5,14,1,1,4,4,1,2,1,0,642,310,0,"CMat",307,308,309,310,NA,NA,NA,NA
"642",4,5,15,1,1,8,1,8,2,1,0,557,5,1,"CMat",5,8,1,4,7,3,6,2
"643",4,5,16,2,1,2,0,0,1,1,0,793,313,0,"CMat",311,312,NA,NA,NA,NA,NA,NA
"644",4,5,17,1,1,2,1,2,2,1,0,414,4,1,"CMat",4,3,NA,NA,NA,NA,NA,NA
"645",4,5,18,1,1,4,3,2,1,1,1,603,316,0,"CMat",314,315,316,317,NA,NA,NA,NA
"646",4,5,19,2,1,2,0,0,2,1,1,511,1,1,"CMat",9,14,NA,NA,NA,NA,NA,NA
"647",4,5,20,1,1,8,5,4,2,1,0,603,322,0,"CMat",318,319,320,321,322,323,324,325
"648",4,5,21,1,1,8,2,7,2,1,0,823,6,1,"CMat",4,6,3,5,7,8,1,2
"649",4,5,22,2,1,2,0,0,2,1,1,489,328,0,"CMat",326,327,NA,NA,NA,NA,NA,NA
"650",4,5,23,1,1,4,1,4,1,1,1,551,16,1,"CMat",16,10,9,11,NA,NA,NA,NA
"651",4,5,24,2,1,2,0,0,1,1,0,500,331,0,"CMat",329,330,NA,NA,NA,NA,NA,NA
"652",4,6,1,1,1,4,3,2,1,1,1,529,15,1,"CMat",13,16,15,12,NA,NA,NA,NA
"653",4,6,2,1,1,4,1,4,2,1,0,723,332,0,"CMat",332,333,334,335,NA,NA,NA,NA
"654",4,6,3,1,1,2,1,2,2,1,0,347,7,1,"CMat",7,6,NA,NA,NA,NA,NA,NA
"655",4,6,4,2,1,8,0,0,1,1,0,695,344,0,"CMat",336,337,338,339,340,341,342,343
"656",4,6,5,1,1,8,7,2,1,1,1,527,9,1,"CMat",15,13,14,10,16,12,9,11
"657",4,6,6,1,1,2,2,1,1,1,1,366,346,0,"CMat",345,346,NA,NA,NA,NA,NA,NA
"658",4,6,7,1,1,8,4,5,1,1,1,507,11,1,"CMat",12,9,10,11,14,15,13,16
"659",4,6,8,1,1,8,6,3,2,1,0,510,352,0,"CMat",347,348,349,350,351,352,353,354
"660",4,6,9,2,1,8,0,0,1,1,0,710,11,1,"CMat",4,5,1,8,2,3,7,6
"661",4,6,10,1,1,4,3,2,2,1,0,507,357,0,"CMat",355,356,357,358,NA,NA,NA,NA
"662",4,6,11,1,1,4,4,1,1,1,1,457,9,1,"CMat",15,13,10,9,NA,NA,NA,NA
"663",4,6,12,2,1,8,0,0,1,1,0,630,367,0,"CMat",359,360,361,362,363,364,365,366
"664",4,6,13,2,1,2,0,0,2,1,1,458,8,1,"CMat",11,14,NA,NA,NA,NA,NA,NA
"665",4,6,14,2,1,2,0,0,2,1,1,496,370,0,"CMat",368,369,NA,NA,NA,NA,NA,NA
"666",4,6,15,2,1,8,0,0,1,1,0,784,11,1,"CMat",5,2,8,7,6,3,4,1
"667",4,6,16,1,1,8,4,5,2,1,0,585,374,0,"CMat",371,372,373,374,375,376,377,378
"668",4,6,17,2,1,8,0,0,2,1,1,605,8,1,"CMat",15,13,12,14,11,10,9,16
"669",4,6,18,1,1,4,1,4,2,1,0,523,379,0,"CMat",379,380,381,382,NA,NA,NA,NA
"670",4,6,19,2,1,8,0,0,2,1,1,563,8,1,"CMat",13,11,12,9,15,14,10,16
"671",4,6,20,1,1,4,3,2,2,1,0,499,385,0,"CMat",383,384,385,386,NA,NA,NA,NA
"672",4,6,21,1,1,4,2,3,2,1,0,392,5,1,"CMat",1,5,2,8,NA,NA,NA,NA
"673",4,6,22,2,1,4,0,0,1,1,0,536,391,0,"CMat",387,388,389,390,NA,NA,NA,NA
"674",4,6,23,2,1,4,0,0,2,1,1,492,7,1,"CMat",13,12,9,11,NA,NA,NA,NA
"675",4,6,24,2,1,2,0,0,2,1,1,411,394,0,"CMat",392,393,NA,NA,NA,NA,NA,NA
"676",4,7,1,1,1,2,2,1,1,1,1,704,14,1,"CMat",13,14,NA,NA,NA,NA,NA,NA
"677",4,7,2,1,1,2,1,2,2,1,0,448,395,0,"CMat",395,396,NA,NA,NA,NA,NA,NA
"678",4,7,3,1,1,8,6,3,2,1,0,874,7,1,"CMat",8,6,5,2,3,7,4,1
"679",4,7,4,2,1,2,0,0,2,1,1,425,399,0,"CMat",397,398,NA,NA,NA,NA,NA,NA
"680",4,7,5,1,1,4,3,2,1,1,1,498,11,1,"CMat",9,14,11,12,NA,NA,NA,NA
"681",4,7,6,2,1,2,0,0,2,1,1,473,402,0,"CMat",400,401,NA,NA,NA,NA,NA,NA
"682",4,7,7,1,1,4,4,1,2,1,0,344,7,1,"CMat",6,8,2,7,NA,NA,NA,NA
"683",4,7,8,2,1,2,0,0,1,1,0,453,405,0,"CMat",403,404,NA,NA,NA,NA,NA,NA
"684",4,7,9,2,1,8,0,0,2,1,1,1015,2,1,"CMat",14,12,10,11,15,16,9,13
"685",4,7,10,1,1,4,3,2,1,1,1,557,408,0,"CMat",406,407,408,409,NA,NA,NA,NA
"686",4,7,11,1,1,8,2,7,2,1,0,651,1,1,"CMat",3,1,7,6,4,5,2,8
"687",4,7,12,2,1,8,0,0,1,1,0,488,418,0,"CMat",410,411,412,413,414,415,416,417
"688",4,7,13,1,1,4,3,2,1,1,1,414,10,1,"CMat",16,14,10,13,NA,NA,NA,NA
"689",4,7,14,1,1,8,4,5,2,1,0,727,422,0,"CMat",419,420,421,422,423,424,425,426
"690",4,7,15,2,1,4,0,0,1,1,0,564,13,1,"CMat",1,8,6,2,NA,NA,NA,NA
"691",4,7,16,1,1,2,1,2,2,1,0,361,427,0,"CMat",427,428,NA,NA,NA,NA,NA,NA
"692",4,7,17,2,1,2,0,0,2,1,1,536,2,1,"CMat",11,14,NA,NA,NA,NA,NA,NA
"693",4,7,18,2,1,4,0,0,1,1,0,570,433,0,"CMat",429,430,431,432,NA,NA,NA,NA
"694",4,7,19,2,1,2,0,0,2,1,1,543,6,1,"CMat",15,12,NA,NA,NA,NA,NA,NA
"695",4,7,20,1,1,4,4,1,2,1,0,360,437,0,"CMat",434,435,436,437,NA,NA,NA,NA
"696",4,7,21,1,1,4,1,4,1,1,1,540,13,1,"CMat",13,15,16,14,NA,NA,NA,NA
"697",4,7,22,2,1,8,0,0,2,1,1,512,446,0,"CMat",438,439,440,441,442,443,444,445
"698",4,7,23,1,1,4,1,4,2,1,0,621,7,1,"CMat",7,8,2,6,NA,NA,NA,NA
"699",4,7,24,1,1,8,6,3,2,1,0,518,452,0,"CMat",447,448,449,450,451,452,453,454
"700",4,8,1,2,1,2,0,0,1,1,0,406,14,1,"CMat",4,7,NA,NA,NA,NA,NA,NA
"701",4,8,2,1,1,2,2,1,2,1,0,401,456,0,"CMat",455,456,NA,NA,NA,NA,NA,NA
"702",4,8,3,1,1,2,1,2,2,1,0,373,6,1,"CMat",6,4,NA,NA,NA,NA,NA,NA
"703",4,8,4,2,1,4,0,0,2,1,1,709,461,0,"CMat",457,458,459,460,NA,NA,NA,NA
"704",4,8,5,2,1,2,0,0,2,1,1,389,5,1,"CMat",16,12,NA,NA,NA,NA,NA,NA
"705",4,8,6,1,1,8,3,6,2,1,0,564,464,0,"CMat",462,463,464,465,466,467,468,469
"706",4,8,7,2,1,2,0,0,1,1,0,377,12,1,"CMat",8,7,NA,NA,NA,NA,NA,NA
"707",4,8,8,2,1,2,0,0,1,1,0,445,472,0,"CMat",470,471,NA,NA,NA,NA,NA,NA
"708",4,8,9,2,1,8,0,0,1,0,1,832,1,1,"CMat",10,9,14,16,13,11,12,15
"709",4,8,10,2,1,2,0,0,2,1,1,440,475,0,"CMat",473,474,NA,NA,NA,NA,NA,NA
"710",4,8,11,2,1,8,0,0,1,1,0,722,13,1,"CMat",7,5,2,8,3,1,6,4
"711",4,8,12,1,1,2,2,1,2,1,0,448,477,0,"CMat",476,477,NA,NA,NA,NA,NA,NA
"712",4,8,13,2,1,2,0,0,2,1,1,410,4,1,"CMat",11,16,NA,NA,NA,NA,NA,NA
"713",4,8,14,1,1,8,3,6,1,1,1,595,480,0,"CMat",478,479,480,481,482,483,484,485
"714",4,8,15,2,1,8,0,0,2,1,1,543,3,1,"CMat",12,14,13,15,16,10,11,9
"715",4,8,16,1,1,8,7,2,2,1,0,505,492,0,"CMat",486,487,488,489,490,491,492,493
"716",4,8,17,1,1,4,2,3,1,1,1,615,15,1,"CMat",16,15,13,14,NA,NA,NA,NA
"717",4,8,18,2,1,4,0,0,2,1,1,451,498,0,"CMat",494,495,496,497,NA,NA,NA,NA
"718",4,8,19,2,1,2,0,0,1,1,0,637,10,1,"CMat",8,3,NA,NA,NA,NA,NA,NA
"719",4,8,20,2,1,2,0,0,2,1,1,415,501,0,"CMat",499,500,NA,NA,NA,NA,NA,NA
"720",4,8,21,1,1,4,1,4,1,1,1,703,13,1,"CMat",13,12,9,16,NA,NA,NA,NA
"721",4,8,22,2,1,8,0,0,2,1,1,546,510,0,"CMat",502,503,504,505,506,507,508,509
"722",4,8,23,1,1,8,7,2,1,1,1,585,12,1,"CMat",11,13,10,15,14,9,12,16
"723",4,8,24,2,1,2,0,0,1,1,0,484,513,0,"CMat",511,512,NA,NA,NA,NA,NA,NA
"724",4,9,1,1,1,2,2,1,2,1,0,451,5,1,"CMat",8,5,NA,NA,NA,NA,NA,NA
"725",4,9,2,1,1,4,1,4,2,1,0,568,514,0,"CMat",514,515,516,517,NA,NA,NA,NA
"726",4,9,3,1,1,8,2,7,1,0,0,1277,3,1,"CMat",5,3,2,4,8,1,6,7
"727",4,9,4,2,1,8,0,0,1,1,0,656,526,0,"CMat",518,519,520,521,522,523,524,525
"728",4,9,5,2,1,2,0,0,2,1,1,426,1,1,"CMat",10,14,NA,NA,NA,NA,NA,NA
"729",4,9,6,1,1,2,1,2,2,1,0,428,527,0,"CMat",527,528,NA,NA,NA,NA,NA,NA
"730",4,9,7,1,1,4,4,1,1,1,1,461,13,1,"CMat",14,9,15,13,NA,NA,NA,NA
"731",4,9,8,2,1,4,0,0,2,1,1,426,533,0,"CMat",529,530,531,532,NA,NA,NA,NA
"732",4,9,9,2,1,2,0,0,2,1,1,533,7,1,"CMat",16,13,NA,NA,NA,NA,NA,NA
"733",4,9,10,1,1,8,2,7,2,1,0,655,535,0,"CMat",534,535,536,537,538,539,540,541
"734",4,9,11,1,1,2,1,2,1,1,1,561,9,1,"CMat",9,12,NA,NA,NA,NA,NA,NA
"735",4,9,12,2,1,2,0,0,2,1,1,454,544,0,"CMat",542,543,NA,NA,NA,NA,NA,NA
"736",4,9,13,1,1,8,8,1,1,1,1,472,16,1,"CMat",13,11,10,12,14,15,9,16
"737",4,9,14,2,1,4,0,0,2,1,1,510,549,0,"CMat",545,546,547,548,NA,NA,NA,NA
"738",4,9,15,1,1,4,2,3,1,1,1,531,16,1,"CMat",11,16,15,10,NA,NA,NA,NA
"739",4,9,16,1,1,8,8,1,2,1,0,484,557,0,"CMat",550,551,552,553,554,555,556,557
"740",4,9,17,2,1,8,0,0,2,1,1,837,1,1,"CMat",14,13,16,9,15,11,12,10
"741",4,9,18,2,1,8,0,0,2,1,1,452,566,0,"CMat",558,559,560,561,562,563,564,565
"742",4,9,19,2,1,2,0,0,1,1,0,446,9,1,"CMat",1,8,NA,NA,NA,NA,NA,NA
"743",4,9,20,1,1,8,5,4,2,1,0,683,571,0,"CMat",567,568,569,570,571,572,573,574
"744",4,9,21,2,1,8,0,0,2,1,1,524,3,1,"CMat",14,11,9,15,12,13,10,16
"745",4,9,22,1,1,2,1,2,1,1,1,499,575,0,"CMat",575,576,NA,NA,NA,NA,NA,NA
"746",4,9,23,2,1,4,0,0,1,1,0,896,16,1,"CMat",7,8,4,2,NA,NA,NA,NA
"747",4,9,24,2,1,4,0,0,2,1,1,491,581,0,"CMat",577,578,579,580,NA,NA,NA,NA
"748",5,2,1,1,1,2,2,1,1,1,1,885,10,1,"CMat",15,10,NA,NA,NA,NA,NA,NA
"749",5,2,2,2,1,2,0,0,1,1,0,1021,78,0,"CMat",76,77,NA,NA,NA,NA,NA,NA
"750",5,2,3,1,1,8,5,4,2,1,0,1106,7,1,"CMat",2,4,6,5,7,1,3,8
"751",5,2,4,1,1,4,4,1,2,1,0,1231,82,0,"CMat",79,80,81,82,NA,NA,NA,NA
"752",5,2,5,1,1,4,2,3,2,1,0,808,3,1,"CMat",8,3,5,2,NA,NA,NA,NA
"753",5,2,6,2,1,8,0,0,1,1,0,767,91,0,"CMat",83,84,85,86,87,88,89,90
"754",5,2,7,1,1,8,7,2,2,1,0,982,4,1,"CMat",7,3,6,1,8,2,4,5
"755",5,2,8,1,1,2,2,1,1,1,1,785,93,0,"CMat",92,93,NA,NA,NA,NA,NA,NA
"756",5,2,9,1,1,4,1,4,1,1,1,916,16,1,"CMat",16,11,12,10,NA,NA,NA,NA
"757",5,2,10,2,1,2,0,0,1,1,0,811,96,0,"CMat",94,95,NA,NA,NA,NA,NA,NA
"758",5,2,11,1,1,2,1,2,1,1,1,839,9,1,"CMat",9,13,NA,NA,NA,NA,NA,NA
"759",5,2,12,1,1,2,1,2,2,1,0,577,97,0,"CMat",97,98,NA,NA,NA,NA,NA,NA
"760",5,2,13,2,1,8,0,0,2,1,1,1024,6,1,"CMat",16,13,9,15,14,12,11,10
"761",5,2,14,1,1,8,5,4,2,1,0,1087,103,0,"CMat",99,100,101,102,103,104,105,106
"762",5,2,15,2,1,4,0,0,1,1,0,1271,12,1,"CMat",4,7,3,2,NA,NA,NA,NA
"763",5,2,16,2,1,2,0,0,1,1,0,687,109,0,"CMat",107,108,NA,NA,NA,NA,NA,NA
"764",5,2,17,2,1,2,0,0,2,1,1,881,5,1,"CMat",12,14,NA,NA,NA,NA,NA,NA
"765",5,2,18,2,1,2,0,0,1,1,0,600,112,0,"CMat",110,111,NA,NA,NA,NA,NA,NA
"766",5,2,19,2,1,4,0,0,2,1,1,539,1,1,"CMat",10,15,14,13,NA,NA,NA,NA
"767",5,2,20,2,1,4,0,0,1,1,0,701,117,0,"CMat",113,114,115,116,NA,NA,NA,NA
"768",5,2,21,1,1,8,5,4,1,1,1,863,12,1,"CMat",16,14,11,13,12,10,15,9
"769",5,2,22,1,1,2,2,1,2,1,0,783,119,0,"CMat",118,119,NA,NA,NA,NA,NA,NA
"770",5,2,23,2,1,8,0,0,1,1,0,854,14,1,"CMat",7,8,5,3,4,2,1,6
"771",5,2,24,1,1,4,1,4,2,1,0,891,120,0,"CMat",120,121,122,123,NA,NA,NA,NA
"772",5,3,1,2,1,2,0,0,1,1,0,709,16,1,"CMat",5,1,NA,NA,NA,NA,NA,NA
"773",5,3,2,1,1,4,1,4,1,1,1,928,124,0,"CMat",124,125,126,127,NA,NA,NA,NA
"774",5,3,3,1,1,2,1,2,2,1,0,745,5,1,"CMat",5,1,NA,NA,NA,NA,NA,NA
"775",5,3,4,2,1,4,0,0,1,1,0,540,132,0,"CMat",128,129,130,131,NA,NA,NA,NA
"776",5,3,5,1,1,2,1,2,2,1,0,612,1,1,"CMat",1,8,NA,NA,NA,NA,NA,NA
"777",5,3,6,1,1,2,2,1,1,1,1,599,134,0,"CMat",133,134,NA,NA,NA,NA,NA,NA
"778",5,3,7,2,1,8,0,0,1,1,0,572,10,1,"CMat",1,8,7,6,3,2,4,5
"779",5,3,8,2,1,2,0,0,1,1,0,632,137,0,"CMat",135,136,NA,NA,NA,NA,NA,NA
"780",5,3,9,2,1,8,0,0,2,1,1,1028,5,1,"CMat",13,14,9,11,15,16,10,12
"781",5,3,10,2,1,4,0,0,2,1,1,827,142,0,"CMat",138,139,140,141,NA,NA,NA,NA
"782",5,3,11,2,1,8,0,0,1,1,0,680,15,1,"CMat",7,5,4,1,6,2,8,3
"783",5,3,12,2,1,2,0,0,1,1,0,552,145,0,"CMat",143,144,NA,NA,NA,NA,NA,NA
"784",5,3,13,2,1,8,0,0,2,1,1,920,4,1,"CMat",11,15,12,9,13,14,10,16
"785",5,3,14,1,1,4,2,3,1,1,1,978,147,0,"CMat",146,147,148,149,NA,NA,NA,NA
"786",5,3,15,1,1,2,1,2,2,1,0,664,1,1,"CMat",1,2,NA,NA,NA,NA,NA,NA
"787",5,3,16,1,1,2,1,2,2,1,0,554,150,0,"CMat",150,151,NA,NA,NA,NA,NA,NA
"788",5,3,17,1,1,2,1,2,1,1,1,649,13,1,"CMat",13,15,NA,NA,NA,NA,NA,NA
"789",5,3,18,2,1,2,0,0,2,1,1,666,154,0,"CMat",152,153,NA,NA,NA,NA,NA,NA
"790",5,3,19,1,1,4,1,4,2,1,0,545,5,1,"CMat",5,4,6,8,NA,NA,NA,NA
"791",5,3,20,2,1,8,0,0,1,1,0,532,163,0,"CMat",155,156,157,158,159,160,161,162
"792",5,3,21,1,1,4,4,1,2,1,0,641,6,1,"CMat",8,5,4,6,NA,NA,NA,NA
"793",5,3,22,1,1,4,1,4,1,1,1,992,164,0,"CMat",164,165,166,167,NA,NA,NA,NA
"794",5,3,23,1,1,2,1,2,1,1,1,621,9,1,"CMat",9,11,NA,NA,NA,NA,NA,NA
"795",5,3,24,2,1,4,0,0,2,1,1,586,172,0,"CMat",168,169,170,171,NA,NA,NA,NA
"796",5,4,1,2,1,4,0,0,1,1,0,757,9,1,"CMat",8,4,5,7,NA,NA,NA,NA
"797",5,4,2,1,1,2,2,1,2,1,0,675,174,0,"CMat",173,174,NA,NA,NA,NA,NA,NA
"798",5,4,3,1,1,2,1,2,1,1,1,765,16,1,"CMat",16,14,NA,NA,NA,NA,NA,NA
"799",5,4,4,2,1,2,0,0,2,1,1,578,177,0,"CMat",175,176,NA,NA,NA,NA,NA,NA
"800",5,4,5,2,1,2,0,0,1,1,0,544,15,1,"CMat",4,6,NA,NA,NA,NA,NA,NA
"801",5,4,6,2,1,4,0,0,1,1,0,626,182,0,"CMat",178,179,180,181,NA,NA,NA,NA
"802",5,4,7,1,1,8,4,5,2,1,0,559,2,1,"CMat",4,6,3,2,5,8,1,7
"803",5,4,8,1,1,4,2,3,1,1,1,824,184,0,"CMat",183,184,185,186,NA,NA,NA,NA
"804",5,4,9,2,1,2,0,0,1,1,0,604,13,1,"CMat",5,8,NA,NA,NA,NA,NA,NA
"805",5,4,10,1,1,4,1,4,2,1,0,827,187,0,"CMat",187,188,189,190,NA,NA,NA,NA
"806",5,4,11,1,1,8,7,2,1,1,1,824,12,1,"CMat",10,14,15,11,16,13,12,9
"807",5,4,12,2,1,4,0,0,2,1,1,832,195,0,"CMat",191,192,193,194,NA,NA,NA,NA
"808",5,4,13,1,1,4,3,2,2,1,0,745,8,1,"CMat",6,7,8,1,NA,NA,NA,NA
"809",5,4,14,1,1,8,4,5,2,1,0,595,199,0,"CMat",196,197,198,199,200,201,202,203
"810",5,4,15,1,1,2,2,1,1,1,1,464,9,1,"CMat",15,9,NA,NA,NA,NA,NA,NA
"811",5,4,16,1,1,8,7,2,1,1,1,536,210,0,"CMat",204,205,206,207,208,209,210,211
"812",5,4,17,1,1,4,3,2,2,1,0,541,2,1,"CMat",4,6,2,5,NA,NA,NA,NA
"813",5,4,18,2,1,8,0,0,2,1,1,574,220,0,"CMat",212,213,214,215,216,217,218,219
"814",5,4,19,1,1,4,2,3,1,1,1,554,11,1,"CMat",9,11,13,16,NA,NA,NA,NA
"815",5,4,20,2,1,4,0,0,2,1,1,706,225,0,"CMat",221,222,223,224,NA,NA,NA,NA
"816",5,4,21,1,1,4,1,4,2,1,0,536,2,1,"CMat",2,7,8,3,NA,NA,NA,NA
"817",5,4,22,1,1,2,2,1,1,1,1,758,227,0,"CMat",226,227,NA,NA,NA,NA,NA,NA
"818",5,4,23,2,1,8,0,0,1,1,0,814,11,1,"CMat",6,3,2,1,4,8,5,7
"819",5,4,24,2,1,8,0,0,1,1,0,557,236,0,"CMat",228,229,230,231,232,233,234,235
"820",5,5,1,2,1,4,0,0,2,1,1,810,2,1,"CMat",15,12,9,11,NA,NA,NA,NA
"821",5,5,2,2,1,4,0,0,2,1,1,423,241,0,"CMat",237,238,239,240,NA,NA,NA,NA
"822",5,5,3,1,1,4,2,3,1,1,1,649,16,1,"CMat",13,16,11,14,NA,NA,NA,NA
"823",5,5,4,1,1,8,3,6,1,1,1,720,244,0,"CMat",242,243,244,245,246,247,248,249
"824",5,5,5,1,1,2,2,1,1,1,1,400,10,1,"CMat",15,10,NA,NA,NA,NA,NA,NA
"825",5,5,6,2,1,2,0,0,1,1,0,529,252,0,"CMat",250,251,NA,NA,NA,NA,NA,NA
"826",5,5,7,1,1,4,1,4,2,1,0,479,4,1,"CMat",4,8,6,2,NA,NA,NA,NA
"827",5,5,8,2,1,8,0,0,2,1,1,524,261,0,"CMat",253,254,255,256,257,258,259,260
"828",5,5,9,1,1,8,1,8,1,1,1,525,10,1,"CMat",10,15,9,14,16,13,12,11
"829",5,5,10,1,1,8,1,8,2,1,0,759,262,0,"CMat",262,263,264,265,266,267,268,269
"830",5,5,11,1,1,2,2,1,2,1,0,806,1,1,"CMat",4,1,NA,NA,NA,NA,NA,NA
"831",5,5,12,1,1,2,1,2,1,1,1,586,270,0,"CMat",270,271,NA,NA,NA,NA,NA,NA
"832",5,5,13,2,1,8,0,0,2,1,1,712,4,1,"CMat",10,11,9,14,12,15,16,13
"833",5,5,14,1,1,4,2,3,1,1,1,498,273,0,"CMat",272,273,274,275,NA,NA,NA,NA
"834",5,5,15,1,1,4,3,2,2,1,0,505,3,1,"CMat",6,1,3,5,NA,NA,NA,NA
"835",5,5,16,2,1,8,0,0,2,1,1,643,284,0,"CMat",276,277,278,279,280,281,282,283
"836",5,5,17,2,1,2,0,0,2,1,1,2935,3,1,"CMat",15,16,NA,NA,NA,NA,NA,NA
"837",5,5,18,1,1,2,1,2,1,1,1,725,285,0,"CMat",285,286,NA,NA,NA,NA,NA,NA
"838",5,5,19,1,1,4,4,1,2,1,0,787,3,1,"CMat",1,8,4,3,NA,NA,NA,NA
"839",5,5,20,2,1,8,0,0,2,1,1,779,295,0,"CMat",287,288,289,290,291,292,293,294
"840",5,5,21,2,1,8,0,0,1,1,0,850,10,1,"CMat",4,6,2,5,7,1,3,8
"841",5,5,22,1,1,4,2,3,1,1,1,1849,297,0,"CMat",296,297,298,299,NA,NA,NA,NA
"842",5,5,23,2,1,2,0,0,2,1,1,588,5,1,"CMat",16,10,NA,NA,NA,NA,NA,NA
"843",5,5,24,2,1,8,0,0,2,1,1,729,308,0,"CMat",300,301,302,303,304,305,306,307
"844",5,6,1,1,1,4,1,4,2,1,0,481,8,1,"CMat",8,7,4,5,NA,NA,NA,NA
"845",5,6,2,2,1,8,0,0,2,1,1,799,317,0,"CMat",309,310,311,312,313,314,315,316
"846",5,6,3,2,1,4,0,0,2,1,1,769,2,1,"CMat",15,10,11,16,NA,NA,NA,NA
"847",5,6,4,2,1,2,0,0,1,1,0,598,320,0,"CMat",318,319,NA,NA,NA,NA,NA,NA
"848",5,6,5,2,1,2,0,0,2,1,1,754,1,1,"CMat",11,10,NA,NA,NA,NA,NA,NA
"849",5,6,6,1,1,8,4,5,1,1,1,877,324,0,"CMat",321,322,323,324,325,326,327,328
"850",5,6,7,1,1,2,1,2,1,1,1,671,12,1,"CMat",12,15,NA,NA,NA,NA,NA,NA
"851",5,6,8,2,1,2,0,0,2,1,1,480,331,0,"CMat",329,330,NA,NA,NA,NA,NA,NA
"852",5,6,9,2,1,4,0,0,1,1,0,623,16,1,"CMat",5,1,3,2,NA,NA,NA,NA
"853",5,6,10,2,1,4,0,0,2,1,1,630,336,0,"CMat",332,333,334,335,NA,NA,NA,NA
"854",5,6,11,2,1,4,0,0,2,1,1,591,4,1,"CMat",9,11,10,16,NA,NA,NA,NA
"855",5,6,12,2,1,8,0,0,2,1,1,647,345,0,"CMat",337,338,339,340,341,342,343,344
"856",5,6,13,1,1,8,7,2,2,1,0,443,5,1,"CMat",7,1,4,6,3,2,5,8
"857",5,6,14,1,1,2,2,1,2,1,0,429,347,0,"CMat",346,347,NA,NA,NA,NA,NA,NA
"858",5,6,15,2,1,2,0,0,1,1,0,561,14,1,"CMat",7,2,NA,NA,NA,NA,NA,NA
"859",5,6,16,1,1,4,2,3,2,1,0,546,349,0,"CMat",348,349,350,351,NA,NA,NA,NA
"860",5,6,17,2,1,8,0,0,1,1,0,555,15,1,"CMat",2,6,1,7,4,5,8,3
"861",5,6,18,1,1,8,3,6,2,1,0,827,354,0,"CMat",352,353,354,355,356,357,358,359
"862",5,6,19,2,1,8,0,0,2,1,1,760,6,1,"CMat",15,14,10,9,13,16,12,11
"863",5,6,20,2,1,8,0,0,2,1,1,937,368,0,"CMat",360,361,362,363,364,365,366,367
"864",5,6,21,1,1,2,2,1,1,1,1,480,14,1,"CMat",15,14,NA,NA,NA,NA,NA,NA
"865",5,6,22,2,1,4,0,0,2,1,1,556,373,0,"CMat",369,370,371,372,NA,NA,NA,NA
"866",5,6,23,2,1,4,0,0,2,1,1,568,5,1,"CMat",12,13,11,15,NA,NA,NA,NA
"867",5,6,24,2,1,8,0,0,1,1,0,498,382,0,"CMat",374,375,376,377,378,379,380,381
"868",5,7,1,2,1,2,0,0,1,1,0,478,9,1,"CMat",4,1,NA,NA,NA,NA,NA,NA
"869",5,7,2,1,1,2,1,2,2,1,0,615,383,0,"CMat",383,384,NA,NA,NA,NA,NA,NA
"870",5,7,3,1,1,4,1,4,1,1,1,648,13,1,"CMat",13,15,14,12,NA,NA,NA,NA
"871",5,7,4,2,1,8,0,0,1,0,1,1029,393,0,"CMat",385,386,387,388,389,390,391,392
"872",5,7,5,2,1,8,0,0,1,1,0,699,9,1,"CMat",8,5,7,1,6,3,4,2
"873",5,7,6,2,1,8,0,0,1,1,0,637,402,0,"CMat",394,395,396,397,398,399,400,401
"874",5,7,7,2,1,8,0,0,2,1,1,738,8,1,"CMat",15,13,11,10,16,12,14,9
"875",5,7,8,1,1,2,2,1,2,1,0,801,404,0,"CMat",403,404,NA,NA,NA,NA,NA,NA
"876",5,7,9,2,1,4,0,0,1,1,0,659,11,1,"CMat",3,2,7,4,NA,NA,NA,NA
"877",5,7,10,2,1,8,0,0,1,1,0,638,413,0,"CMat",405,406,407,408,409,410,411,412
"878",5,7,11,2,1,4,0,0,1,1,0,639,12,1,"CMat",2,5,3,8,NA,NA,NA,NA
"879",5,7,12,1,1,2,1,2,2,1,0,544,414,0,"CMat",414,415,NA,NA,NA,NA,NA,NA
"880",5,7,13,1,1,2,1,2,2,1,0,487,4,1,"CMat",4,5,NA,NA,NA,NA,NA,NA
"881",5,7,14,2,1,8,0,0,2,1,1,586,424,0,"CMat",416,417,418,419,420,421,422,423
"882",5,7,15,1,1,2,2,1,1,1,1,432,10,1,"CMat",13,10,NA,NA,NA,NA,NA,NA
"883",5,7,16,1,1,8,3,6,1,1,1,719,427,0,"CMat",425,426,427,428,429,430,431,432
"884",5,7,17,1,1,4,3,2,2,1,0,556,4,1,"CMat",3,7,4,5,NA,NA,NA,NA
"885",5,7,18,1,1,4,2,3,1,1,1,870,434,0,"CMat",433,434,435,436,NA,NA,NA,NA
"886",5,7,19,1,1,2,2,1,1,1,1,384,15,1,"CMat",16,15,NA,NA,NA,NA,NA,NA
"887",5,7,20,1,1,2,2,1,1,1,1,539,438,0,"CMat",437,438,NA,NA,NA,NA,NA,NA
"888",5,7,21,1,1,8,8,1,1,1,1,427,12,1,"CMat",10,14,13,16,9,15,11,12
"889",5,7,22,2,1,2,0,0,1,1,0,678,441,0,"CMat",439,440,NA,NA,NA,NA,NA,NA
"890",5,7,23,1,1,4,2,3,2,1,0,686,3,1,"CMat",7,3,4,6,NA,NA,NA,NA
"891",5,7,24,2,1,4,0,0,2,1,1,610,446,0,"CMat",442,443,444,445,NA,NA,NA,NA
"892",5,8,1,2,1,8,0,0,1,1,0,1024,13,1,"CMat",8,1,4,6,3,7,5,2
"893",5,8,2,2,1,8,0,0,1,1,0,529,455,0,"CMat",447,448,449,450,451,452,453,454
"894",5,8,3,2,1,4,0,0,1,1,0,583,10,1,"CMat",4,8,7,2,NA,NA,NA,NA
"895",5,8,4,2,1,2,0,0,1,1,0,513,458,0,"CMat",456,457,NA,NA,NA,NA,NA,NA
"896",5,8,5,2,1,8,0,0,2,1,1,579,1,1,"CMat",14,12,9,10,16,13,15,11
"897",5,8,6,2,1,4,0,0,2,1,1,653,463,0,"CMat",459,460,461,462,NA,NA,NA,NA
"898",5,8,7,2,1,2,0,0,1,1,0,528,12,1,"CMat",3,1,NA,NA,NA,NA,NA,NA
"899",5,8,8,1,1,2,2,1,1,1,1,735,465,0,"CMat",464,465,NA,NA,NA,NA,NA,NA
"900",5,8,9,1,1,2,2,1,1,1,1,494,11,1,"CMat",15,11,NA,NA,NA,NA,NA,NA
"901",5,8,10,2,1,2,0,0,1,1,0,2704,468,0,"CMat",466,467,NA,NA,NA,NA,NA,NA
"902",5,8,11,2,1,2,0,0,1,1,0,584,9,1,"CMat",2,5,NA,NA,NA,NA,NA,NA
"903",5,8,12,2,1,8,0,0,1,1,0,624,477,0,"CMat",469,470,471,472,473,474,475,476
"904",5,8,13,1,1,2,2,1,1,1,1,636,9,1,"CMat",13,9,NA,NA,NA,NA,NA,NA
"905",5,8,14,1,1,2,1,2,1,1,1,734,478,0,"CMat",478,479,NA,NA,NA,NA,NA,NA
"906",5,8,15,2,1,2,0,0,1,1,0,605,16,1,"CMat",4,2,NA,NA,NA,NA,NA,NA
"907",5,8,16,1,1,8,1,8,1,1,1,710,480,0,"CMat",480,481,482,483,484,485,486,487
"908",5,8,17,2,1,2,0,0,1,1,0,494,10,1,"CMat",8,6,NA,NA,NA,NA,NA,NA
"909",5,8,18,1,1,2,1,2,2,1,0,558,488,0,"CMat",488,489,NA,NA,NA,NA,NA,NA
"910",5,8,19,2,1,2,0,0,1,1,0,501,11,1,"CMat",3,7,NA,NA,NA,NA,NA,NA
"911",5,8,20,2,1,8,0,0,1,1,0,553,498,0,"CMat",490,491,492,493,494,495,496,497
"912",5,8,21,2,1,2,0,0,1,1,0,439,14,1,"CMat",2,4,NA,NA,NA,NA,NA,NA
"913",5,8,22,2,1,4,0,0,2,1,1,661,503,0,"CMat",499,500,501,502,NA,NA,NA,NA
"914",5,8,23,2,1,4,0,0,2,1,1,637,1,1,"CMat",12,13,15,10,NA,NA,NA,NA
"915",5,8,24,1,1,4,3,2,2,0,1,549,506,0,"CMat",504,505,506,507,NA,NA,NA,NA
"916",5,9,1,2,1,8,0,0,2,1,1,793,5,1,"CMat",10,12,9,14,13,15,16,11
"917",5,9,2,1,1,2,1,2,2,1,0,950,508,0,"CMat",508,509,NA,NA,NA,NA,NA,NA
"918",5,9,3,1,1,8,5,4,2,1,0,854,4,1,"CMat",7,2,8,5,4,3,1,6
"919",5,9,4,1,1,8,7,2,1,1,1,554,516,0,"CMat",510,511,512,513,514,515,516,517
"920",5,9,5,1,1,4,3,2,2,1,0,486,4,1,"CMat",5,8,4,7,NA,NA,NA,NA
"921",5,9,6,1,1,4,3,2,1,1,1,706,520,0,"CMat",518,519,520,521,NA,NA,NA,NA
"922",5,9,7,1,1,2,2,1,2,1,0,643,5,1,"CMat",6,5,NA,NA,NA,NA,NA,NA
"923",5,9,8,1,1,2,2,1,1,1,1,582,523,0,"CMat",522,523,NA,NA,NA,NA,NA,NA
"924",5,9,9,2,1,8,0,0,1,1,0,765,12,1,"CMat",1,6,7,5,8,4,3,2
"925",5,9,10,2,1,8,0,0,2,1,1,631,532,0,"CMat",524,525,526,527,528,529,530,531
"926",5,9,11,2,1,4,0,0,2,1,1,544,8,1,"CMat",16,14,15,12,NA,NA,NA,NA
"927",5,9,12,2,1,8,0,0,1,1,0,626,541,0,"CMat",533,534,535,536,537,538,539,540
"928",5,9,13,1,1,8,7,2,1,1,1,607,12,1,"CMat",10,13,16,9,15,14,12,11
"929",5,9,14,1,1,2,2,1,1,1,1,507,543,0,"CMat",542,543,NA,NA,NA,NA,NA,NA
"930",5,9,15,2,1,8,0,0,2,1,1,852,2,1,"CMat",16,13,10,11,15,12,14,9
"931",5,9,16,2,1,2,0,0,2,1,1,732,546,0,"CMat",544,545,NA,NA,NA,NA,NA,NA
"932",5,9,17,1,1,4,3,2,2,1,0,545,8,1,"CMat",5,4,8,7,NA,NA,NA,NA
"933",5,9,18,2,1,4,0,0,2,1,1,580,551,0,"CMat",547,548,549,550,NA,NA,NA,NA
"934",5,9,19,1,1,4,3,2,2,1,0,512,1,1,"CMat",4,5,1,8,NA,NA,NA,NA
"935",5,9,20,2,1,2,0,0,2,1,1,630,554,0,"CMat",552,553,NA,NA,NA,NA,NA,NA
"936",5,9,21,2,1,2,0,0,2,1,1,618,4,1,"CMat",11,16,NA,NA,NA,NA,NA,NA
"937",5,9,22,1,1,8,3,6,2,1,0,679,557,0,"CMat",555,556,557,558,559,560,561,562
"938",5,9,23,1,1,2,1,2,1,1,1,561,11,1,"CMat",11,16,NA,NA,NA,NA,NA,NA
"939",5,9,24,2,1,4,0,0,1,1,0,499,567,0,"CMat",563,564,565,566,NA,NA,NA,NA
"940",6,2,1,2,1,2,0,0,2,1,1,517,6,1,"CMat",16,11,NA,NA,NA,NA,NA,NA
"941",6,2,2,2,1,2,0,0,2,1,1,483,61,0,"CMat",59,60,NA,NA,NA,NA,NA,NA
"942",6,2,3,2,1,2,0,0,1,1,0,548,10,1,"CMat",6,8,NA,NA,NA,NA,NA,NA
"943",6,2,4,1,1,8,1,8,1,1,1,810,62,0,"CMat",62,63,64,65,66,67,68,69
"944",6,2,5,2,1,8,0,0,1,1,0,798,11,1,"CMat",6,8,3,7,4,5,2,1
"945",6,2,6,2,1,2,0,0,1,1,0,1263,72,0,"CMat",70,71,NA,NA,NA,NA,NA,NA
"946",6,2,7,2,1,4,0,0,1,1,0,582,14,1,"CMat",8,5,7,3,NA,NA,NA,NA
"947",6,2,8,2,1,2,0,0,2,1,1,514,75,0,"CMat",73,74,NA,NA,NA,NA,NA,NA
"948",6,2,9,2,1,4,0,0,2,1,1,758,4,1,"CMat",10,16,13,14,NA,NA,NA,NA
"949",6,2,10,2,1,8,0,0,2,1,1,570,84,0,"CMat",76,77,78,79,80,81,82,83
"950",6,2,11,2,1,8,0,0,2,1,1,647,6,1,"CMat",9,14,11,15,12,13,10,16
"951",6,2,12,2,1,8,0,0,2,1,1,493,93,0,"CMat",85,86,87,88,89,90,91,92
"952",6,2,13,1,1,2,2,1,2,1,0,1037,4,1,"CMat",7,4,NA,NA,NA,NA,NA,NA
"953",6,2,14,1,1,4,1,4,2,1,0,749,94,0,"CMat",94,95,96,97,NA,NA,NA,NA
"954",6,2,15,1,1,4,2,3,2,1,0,568,3,1,"CMat",6,3,5,1,NA,NA,NA,NA
"955",6,2,16,2,1,8,0,0,2,1,1,591,106,0,"CMat",98,99,100,101,102,103,104,105
"956",6,2,17,1,1,8,5,4,1,1,1,524,10,1,"CMat",11,14,15,16,10,13,9,12
"957",6,2,18,2,1,2,0,0,1,1,0,937,109,0,"CMat",107,108,NA,NA,NA,NA,NA,NA
"958",6,2,19,2,1,2,0,0,2,1,1,536,7,1,"CMat",12,11,NA,NA,NA,NA,NA,NA
"959",6,2,20,2,1,4,0,0,2,1,1,520,114,0,"CMat",110,111,112,113,NA,NA,NA,NA
"960",6,2,21,2,1,4,0,0,1,1,0,605,14,1,"CMat",3,8,1,7,NA,NA,NA,NA
"961",6,2,22,1,1,4,4,1,1,1,1,636,118,0,"CMat",115,116,117,118,NA,NA,NA,NA
"962",6,2,23,1,1,8,1,8,2,1,0,518,7,1,"CMat",7,1,5,4,6,2,8,3
"963",6,2,24,1,1,4,4,1,1,1,1,441,122,0,"CMat",119,120,121,122,NA,NA,NA,NA
"964",6,3,1,1,1,8,3,6,1,1,1,573,11,1,"CMat",13,14,11,12,16,9,10,15
"965",6,3,2,1,1,4,4,1,2,1,0,462,126,0,"CMat",123,124,125,126,NA,NA,NA,NA
"966",6,3,3,2,1,8,0,0,2,1,1,816,1,1,"CMat",14,11,16,15,10,12,9,13
"967",6,3,4,2,1,4,0,0,2,1,1,533,131,0,"CMat",127,128,129,130,NA,NA,NA,NA
"968",6,3,5,1,1,8,3,6,1,1,1,580,15,1,"CMat",12,11,15,13,10,9,14,16
"969",6,3,6,2,1,2,0,0,2,1,1,494,134,0,"CMat",132,133,NA,NA,NA,NA,NA,NA
"970",6,3,7,2,1,8,0,0,1,1,0,591,9,1,"CMat",7,4,1,3,6,8,2,5
"971",6,3,8,2,1,8,0,0,2,1,1,518,143,0,"CMat",135,136,137,138,139,140,141,142
"972",6,3,9,1,1,2,2,1,1,1,1,453,11,1,"CMat",16,11,NA,NA,NA,NA,NA,NA
"973",6,3,10,2,1,8,0,0,1,1,0,594,152,0,"CMat",144,145,146,147,148,149,150,151
"974",6,3,11,1,1,2,1,2,2,1,0,654,4,1,"CMat",4,7,NA,NA,NA,NA,NA,NA
"975",6,3,12,1,1,8,3,6,2,1,0,581,155,0,"CMat",153,154,155,156,157,158,159,160
"976",6,3,13,2,1,4,0,0,2,1,1,647,1,1,"CMat",14,9,13,12,NA,NA,NA,NA
"977",6,3,14,2,1,4,0,0,2,0,0,900,165,0,"CMat",161,162,163,164,NA,NA,NA,NA
"978",6,3,15,1,1,4,3,2,2,1,0,585,3,1,"CMat",4,6,3,8,NA,NA,NA,NA
"979",6,3,16,1,1,2,2,1,2,1,0,485,167,0,"CMat",166,167,NA,NA,NA,NA,NA,NA
"980",6,3,17,1,1,4,1,4,1,1,1,603,16,1,"CMat",16,9,15,10,NA,NA,NA,NA
"981",6,3,18,2,1,2,0,0,1,1,0,1142,170,0,"CMat",168,169,NA,NA,NA,NA,NA,NA
"982",6,3,19,2,1,4,0,0,1,1,0,578,12,1,"CMat",2,7,8,1,NA,NA,NA,NA
"983",6,3,20,2,1,4,0,0,1,1,0,482,175,0,"CMat",171,172,173,174,NA,NA,NA,NA
"984",6,3,21,1,1,8,8,1,2,1,0,514,6,1,"CMat",8,1,4,2,5,3,7,6
"985",6,3,22,1,1,2,2,1,1,1,1,784,177,0,"CMat",176,177,NA,NA,NA,NA,NA,NA
"986",6,3,23,2,1,2,0,0,2,1,1,484,5,1,"CMat",9,10,NA,NA,NA,NA,NA,NA
"987",6,3,24,2,1,2,0,0,1,1,0,644,180,0,"CMat",178,179,NA,NA,NA,NA,NA,NA
"988",6,4,1,1,1,4,4,1,1,1,1,350,10,1,"CMat",15,12,16,10,NA,NA,NA,NA
"989",6,4,2,1,1,2,2,1,2,1,0,435,182,0,"CMat",181,182,NA,NA,NA,NA,NA,NA
"990",6,4,3,1,1,2,1,2,1,1,1,550,14,1,"CMat",14,13,NA,NA,NA,NA,NA,NA
"991",6,4,4,2,1,4,0,0,1,1,0,534,187,0,"CMat",183,184,185,186,NA,NA,NA,NA
"992",6,4,5,1,1,2,2,1,2,1,0,388,7,1,"CMat",4,7,NA,NA,NA,NA,NA,NA
"993",6,4,6,1,1,2,1,2,1,1,1,424,188,0,"CMat",188,189,NA,NA,NA,NA,NA,NA
"994",6,4,7,2,1,4,0,0,2,1,1,560,8,1,"CMat",14,11,15,12,NA,NA,NA,NA
"995",6,4,8,1,1,8,8,1,2,1,0,507,197,0,"CMat",190,191,192,193,194,195,196,197
"996",6,4,9,1,1,8,7,2,1,1,1,731,16,1,"CMat",9,10,14,15,13,11,16,12
"997",6,4,10,1,1,8,4,5,2,1,0,701,201,0,"CMat",198,199,200,201,202,203,204,205
"998",6,4,11,2,1,8,0,0,2,1,1,773,3,1,"CMat",10,12,9,13,16,14,15,11
"999",6,4,12,1,1,2,1,2,1,1,1,601,206,0,"CMat",206,207,NA,NA,NA,NA,NA,NA
"1000",6,4,13,1,1,4,3,2,1,1,1,490,11,1,"CMat",13,9,11,10,NA,NA,NA,NA
"1001",6,4,14,1,1,2,1,2,2,1,0,666,208,0,"CMat",208,209,NA,NA,NA,NA,NA,NA
"1002",6,4,15,1,1,2,2,1,2,1,0,531,6,1,"CMat",5,6,NA,NA,NA,NA,NA,NA
"1003",6,4,16,1,1,4,2,3,1,0,0,612,211,0,"CMat",210,211,212,213,NA,NA,NA,NA
"1004",6,4,17,1,1,4,2,3,2,1,0,565,6,1,"CMat",3,6,1,7,NA,NA,NA,NA
"1005",6,4,18,2,1,4,0,0,1,1,0,579,218,0,"CMat",214,215,216,217,NA,NA,NA,NA
"1006",6,4,19,2,1,8,0,0,1,0,1,672,1,1,"CMat",14,10,12,13,15,11,16,9
"1007",6,4,20,2,1,2,0,0,2,1,1,504,221,0,"CMat",219,220,NA,NA,NA,NA,NA,NA
"1008",6,4,21,2,1,2,0,0,1,1,0,920,14,1,"CMat",6,1,NA,NA,NA,NA,NA,NA
"1009",6,4,22,1,1,8,8,1,1,1,1,613,229,0,"CMat",222,223,224,225,226,227,228,229
"1010",6,4,23,2,1,4,0,0,1,1,0,629,13,1,"CMat",6,5,3,2,NA,NA,NA,NA
"1011",6,4,24,1,1,8,3,6,1,1,1,683,232,0,"CMat",230,231,232,233,234,235,236,237
"1012",6,5,1,1,1,8,3,6,1,1,1,496,15,1,"CMat",11,16,15,12,10,14,13,9
"1013",6,5,2,1,1,2,2,1,2,1,0,431,239,0,"CMat",238,239,NA,NA,NA,NA,NA,NA
"1014",6,5,3,1,1,8,8,1,1,1,1,386,15,1,"CMat",9,13,12,11,14,10,16,15
"1015",6,5,4,2,1,8,0,0,2,1,1,580,248,0,"CMat",240,241,242,243,244,245,246,247
"1016",6,5,5,1,1,4,3,2,2,1,0,550,2,1,"CMat",5,3,2,4,NA,NA,NA,NA
"1017",6,5,6,1,1,8,8,1,2,1,0,397,256,0,"CMat",249,250,251,252,253,254,255,256
"1018",6,5,7,2,1,4,0,0,1,1,0,583,9,1,"CMat",8,1,6,5,NA,NA,NA,NA
"1019",6,5,8,1,1,8,6,3,1,1,1,831,262,0,"CMat",257,258,259,260,261,262,263,264
"1020",6,5,9,2,1,8,0,0,2,1,1,721,8,1,"CMat",11,9,13,15,14,10,12,16
"1021",6,5,10,2,1,8,0,0,2,1,1,471,273,0,"CMat",265,266,267,268,269,270,271,272
"1022",6,5,11,2,1,2,0,0,2,1,1,585,2,1,"CMat",10,14,NA,NA,NA,NA,NA,NA
"1023",6,5,12,2,1,2,0,0,1,1,0,677,276,0,"CMat",274,275,NA,NA,NA,NA,NA,NA
"1024",6,5,13,1,1,4,3,2,2,1,0,787,6,1,"CMat",1,5,6,2,NA,NA,NA,NA
"1025",6,5,14,1,1,8,4,5,2,1,0,675,280,0,"CMat",277,278,279,280,281,282,283,284
"1026",6,5,15,1,1,8,7,2,1,1,1,509,11,1,"CMat",14,12,13,10,16,15,11,9
"1027",6,5,16,2,1,4,0,0,1,1,0,480,289,0,"CMat",285,286,287,288,NA,NA,NA,NA
"1028",6,5,17,1,1,8,6,3,1,1,1,449,11,1,"CMat",9,16,15,14,10,11,12,13
"1029",6,5,18,1,1,8,7,2,2,1,0,704,296,0,"CMat",290,291,292,293,294,295,296,297
"1030",6,5,19,1,1,4,2,3,1,1,1,525,13,1,"CMat",10,13,15,12,NA,NA,NA,NA
"1031",6,5,20,2,1,8,0,0,1,1,0,599,306,0,"CMat",298,299,300,301,302,303,304,305
"1032",6,5,21,2,1,8,0,0,1,1,0,595,11,1,"CMat",4,2,3,5,6,1,7,8
"1033",6,5,22,2,1,8,0,0,2,1,1,539,315,0,"CMat",307,308,309,310,311,312,313,314
"1034",6,5,23,2,1,4,0,0,1,1,0,447,12,1,"CMat",6,4,7,8,NA,NA,NA,NA
"1035",6,5,24,2,1,4,0,0,1,1,0,468,320,0,"CMat",316,317,318,319,NA,NA,NA,NA
"1036",6,6,1,2,1,8,0,0,1,1,0,947,16,1,"CMat",6,4,8,2,1,5,3,7
"1037",6,6,2,2,1,4,0,0,1,1,0,500,325,0,"CMat",321,322,323,324,NA,NA,NA,NA
"1038",6,6,3,2,1,4,0,0,2,1,1,826,4,1,"CMat",12,13,16,11,NA,NA,NA,NA
"1039",6,6,4,1,1,4,4,1,1,1,1,370,329,0,"CMat",326,327,328,329,NA,NA,NA,NA
"1040",6,6,5,2,1,2,0,0,1,1,0,407,16,1,"CMat",8,3,NA,NA,NA,NA,NA,NA
"1041",6,6,6,1,1,4,1,4,1,0,0,383,330,0,"CMat",330,331,332,333,NA,NA,NA,NA
"1042",6,6,7,1,1,8,3,6,1,1,1,531,11,1,"CMat",10,9,11,16,14,15,13,12
"1043",6,6,8,1,1,4,1,4,1,1,1,725,334,0,"CMat",334,335,336,337,NA,NA,NA,NA
"1044",6,6,9,1,1,4,2,3,2,1,0,545,4,1,"CMat",8,4,6,5,NA,NA,NA,NA
"1045",6,6,10,2,1,2,0,0,2,1,1,990,340,0,"CMat",338,339,NA,NA,NA,NA,NA,NA
"1046",6,6,11,2,1,8,0,0,2,0,0,763,14,1,"CMat",7,1,3,6,8,2,5,4
"1047",6,6,12,2,1,4,0,0,1,1,0,434,345,0,"CMat",341,342,343,344,NA,NA,NA,NA
"1048",6,6,13,1,1,4,1,4,1,1,1,538,15,1,"CMat",15,10,12,11,NA,NA,NA,NA
"1049",6,6,14,1,1,4,4,1,2,1,0,540,349,0,"CMat",346,347,348,349,NA,NA,NA,NA
"1050",6,6,15,2,1,4,0,0,1,1,0,784,14,1,"CMat",7,3,6,8,NA,NA,NA,NA
"1051",6,6,16,2,1,4,0,0,2,1,1,631,354,0,"CMat",350,351,352,353,NA,NA,NA,NA
"1052",6,6,17,1,1,2,1,2,1,1,1,770,15,1,"CMat",15,10,NA,NA,NA,NA,NA,NA
"1053",6,6,18,2,1,4,0,0,1,1,0,555,359,0,"CMat",355,356,357,358,NA,NA,NA,NA
"1054",6,6,19,1,1,2,1,2,1,1,1,632,12,1,"CMat",12,9,NA,NA,NA,NA,NA,NA
"1055",6,6,20,1,1,2,1,2,1,1,1,658,360,0,"CMat",360,361,NA,NA,NA,NA,NA,NA
"1056",6,6,21,1,1,2,2,1,2,1,0,524,4,1,"CMat",5,4,NA,NA,NA,NA,NA,NA
"1057",6,6,22,1,1,8,2,7,2,1,0,903,363,0,"CMat",362,363,364,365,366,367,368,369
"1058",6,6,23,1,1,4,2,3,1,1,1,444,14,1,"CMat",9,14,15,12,NA,NA,NA,NA
"1059",6,6,24,1,1,4,4,1,1,1,1,483,373,0,"CMat",370,371,372,373,NA,NA,NA,NA
"1060",6,7,1,2,1,2,0,0,2,1,1,644,7,1,"CMat",11,9,NA,NA,NA,NA,NA,NA
"1061",6,7,2,1,1,4,2,3,1,1,1,704,375,0,"CMat",374,375,376,377,NA,NA,NA,NA
"1062",6,7,3,2,1,4,0,0,1,1,0,717,9,1,"CMat",7,6,5,1,NA,NA,NA,NA
"1063",6,7,4,1,1,2,1,2,2,1,0,596,378,0,"CMat",378,379,NA,NA,NA,NA,NA,NA
"1064",6,7,5,1,1,2,1,2,1,1,1,368,15,1,"CMat",15,14,NA,NA,NA,NA,NA,NA
"1065",6,7,6,1,1,8,1,8,1,1,1,611,380,0,"CMat",380,381,382,383,384,385,386,387
"1066",6,7,7,2,1,8,0,0,2,1,1,751,2,1,"CMat",15,9,13,16,11,14,10,12
"1067",6,7,8,1,1,8,6,3,1,1,1,657,393,0,"CMat",388,389,390,391,392,393,394,395
"1068",6,7,9,2,1,8,0,0,1,1,0,683,16,1,"CMat",3,2,4,7,6,5,8,1
"1069",6,7,10,1,1,4,1,4,1,1,1,599,396,0,"CMat",396,397,398,399,NA,NA,NA,NA
"1070",6,7,11,2,1,8,0,0,1,0,1,1010,5,1,"CMat",10,14,12,11,15,13,16,9
"1071",6,7,12,1,1,8,7,2,1,1,1,602,406,0,"CMat",400,401,402,403,404,405,406,407
"1072",6,7,13,1,1,2,1,2,2,0,1,790,14,1,"CMat",14,9,NA,NA,NA,NA,NA,NA
"1073",6,7,14,1,1,2,1,2,1,1,1,442,408,0,"CMat",408,409,NA,NA,NA,NA,NA,NA
"1074",6,7,15,1,1,2,1,2,2,1,0,764,4,1,"CMat",4,3,NA,NA,NA,NA,NA,NA
"1075",6,7,16,1,1,2,1,2,1,1,1,384,410,0,"CMat",410,411,NA,NA,NA,NA,NA,NA
"1076",6,7,17,1,1,2,1,2,2,1,0,532,5,1,"CMat",5,7,NA,NA,NA,NA,NA,NA
"1077",6,7,18,1,1,2,2,1,1,1,1,529,413,0,"CMat",412,413,NA,NA,NA,NA,NA,NA
"1078",6,7,19,2,1,2,0,0,2,1,1,641,7,1,"CMat",16,12,NA,NA,NA,NA,NA,NA
"1079",6,7,20,2,1,4,0,0,2,1,1,494,418,0,"CMat",414,415,416,417,NA,NA,NA,NA
"1080",6,7,21,1,1,4,4,1,1,1,1,484,16,1,"CMat",10,11,12,16,NA,NA,NA,NA
"1081",6,7,22,1,1,8,7,2,2,1,0,673,425,0,"CMat",419,420,421,422,423,424,425,426
"1082",6,7,23,1,1,2,2,1,1,1,1,427,9,1,"CMat",15,9,NA,NA,NA,NA,NA,NA
"1083",6,7,24,1,1,8,1,8,2,1,0,699,427,0,"CMat",427,428,429,430,431,432,433,434
"1084",6,8,1,1,1,2,2,1,1,1,1,377,15,1,"CMat",16,15,NA,NA,NA,NA,NA,NA
"1085",6,8,2,2,1,8,0,0,2,1,1,536,443,0,"CMat",435,436,437,438,439,440,441,442
"1086",6,8,3,1,1,4,3,2,2,1,0,524,7,1,"CMat",8,3,7,1,NA,NA,NA,NA
"1087",6,8,4,2,1,2,0,0,1,1,0,458,446,0,"CMat",444,445,NA,NA,NA,NA,NA,NA
"1088",6,8,5,2,1,8,0,0,2,1,1,732,8,1,"CMat",14,13,12,9,15,16,11,10
"1089",6,8,6,2,1,4,0,0,2,1,1,438,451,0,"CMat",447,448,449,450,NA,NA,NA,NA
"1090",6,8,7,2,1,8,0,0,2,1,1,712,2,1,"CMat",12,9,15,16,11,10,13,14
"1091",6,8,8,2,1,4,0,0,2,1,1,1522,456,0,"CMat",452,453,454,455,NA,NA,NA,NA
"1092",6,8,9,1,1,8,2,7,2,1,0,537,3,1,"CMat",2,3,7,8,6,1,5,4
"1093",6,8,10,2,1,8,0,0,1,1,0,514,465,0,"CMat",457,458,459,460,461,462,463,464
"1094",6,8,11,1,1,2,1,2,1,1,1,433,9,1,"CMat",9,16,NA,NA,NA,NA,NA,NA
"1095",6,8,12,2,1,4,0,0,2,1,1,583,470,0,"CMat",466,467,468,469,NA,NA,NA,NA
"1096",6,8,13,1,1,4,3,2,2,1,0,697,4,1,"CMat",8,1,4,5,NA,NA,NA,NA
"1097",6,8,14,1,1,8,5,4,2,0,1,764,475,0,"CMat",471,472,473,474,475,476,477,478
"1098",6,8,15,1,1,4,3,2,2,1,0,662,1,1,"CMat",4,2,1,3,NA,NA,NA,NA
"1099",6,8,16,1,1,4,4,1,1,1,1,357,482,0,"CMat",479,480,481,482,NA,NA,NA,NA
"1100",6,8,17,1,1,8,8,1,1,1,1,427,12,1,"CMat",10,16,11,14,15,13,9,12
"1101",6,8,18,1,1,8,5,4,1,0,0,620,487,0,"CMat",483,484,485,486,487,488,489,490
"1102",6,8,19,2,1,2,0,0,1,1,0,647,12,1,"CMat",2,5,NA,NA,NA,NA,NA,NA
"1103",6,8,20,2,1,2,0,0,1,1,0,497,493,0,"CMat",491,492,NA,NA,NA,NA,NA,NA
"1104",6,8,21,2,1,8,0,0,1,1,0,897,10,1,"CMat",6,8,1,7,5,3,2,4
"1105",6,8,22,2,1,4,0,0,1,1,0,772,498,0,"CMat",494,495,496,497,NA,NA,NA,NA
"1106",6,8,23,1,1,8,7,2,2,1,0,713,4,1,"CMat",3,6,7,2,1,5,4,8
"1107",6,8,24,1,1,4,2,3,1,1,1,980,500,0,"CMat",499,500,501,502,NA,NA,NA,NA
"1108",6,9,1,1,1,8,2,7,1,1,1,460,11,1,"CMat",15,11,9,10,14,12,13,16
"1109",6,9,2,1,1,4,4,1,2,1,0,354,506,0,"CMat",503,504,505,506,NA,NA,NA,NA
"1110",6,9,3,1,1,4,1,4,2,1,0,494,4,1,"CMat",4,8,3,5,NA,NA,NA,NA
"1111",6,9,4,2,1,8,0,0,1,1,0,459,515,0,"CMat",507,508,509,510,511,512,513,514
"1112",6,9,5,2,1,8,0,0,2,1,1,653,7,1,"CMat",13,11,10,9,15,16,12,14
"1113",6,9,6,1,1,8,3,6,1,1,1,836,518,0,"CMat",516,517,518,519,520,521,522,523
"1114",6,9,7,2,1,8,0,0,2,1,1,806,6,1,"CMat",9,11,14,16,13,15,10,12
"1115",6,9,8,1,1,4,2,3,1,1,1,573,525,0,"CMat",524,525,526,527,NA,NA,NA,NA
"1116",6,9,9,1,1,4,1,4,1,1,1,558,9,1,"CMat",9,14,13,11,NA,NA,NA,NA
"1117",6,9,10,2,1,2,0,0,1,1,0,492,530,0,"CMat",528,529,NA,NA,NA,NA,NA,NA
"1118",6,9,11,2,1,8,0,0,1,1,0,1084,12,1,"CMat",5,6,3,7,2,1,4,8
"1119",6,9,12,2,1,4,0,0,2,1,1,519,535,0,"CMat",531,532,533,534,NA,NA,NA,NA
"1120",6,9,13,2,1,4,0,0,2,1,1,540,7,1,"CMat",10,12,14,16,NA,NA,NA,NA
"1121",6,9,14,2,1,2,0,0,1,1,0,409,538,0,"CMat",536,537,NA,NA,NA,NA,NA,NA
"1122",6,9,15,2,1,4,0,0,1,1,0,978,10,1,"CMat",4,5,3,7,NA,NA,NA,NA
"1123",6,9,16,2,1,2,0,0,2,1,1,382,541,0,"CMat",539,540,NA,NA,NA,NA,NA,NA
"1124",6,9,17,1,1,8,7,2,2,1,0,530,6,1,"CMat",1,2,7,4,8,3,6,5
"1125",6,9,18,1,1,8,5,4,1,1,1,638,546,0,"CMat",542,543,544,545,546,547,548,549
"1126",6,9,19,1,1,2,1,2,1,1,1,505,10,1,"CMat",10,16,NA,NA,NA,NA,NA,NA
"1127",6,9,20,2,1,8,0,0,1,1,0,564,558,0,"CMat",550,551,552,553,554,555,556,557
"1128",6,9,21,1,1,8,6,3,2,1,0,609,7,1,"CMat",5,4,3,2,1,7,8,6
"1129",6,9,22,2,1,2,0,0,1,1,0,540,561,0,"CMat",559,560,NA,NA,NA,NA,NA,NA
"1130",6,9,23,2,1,2,0,0,2,1,1,506,2,1,"CMat",14,11,NA,NA,NA,NA,NA,NA
"1131",6,9,24,2,1,4,0,0,1,1,0,462,566,0,"CMat",562,563,564,565,NA,NA,NA,NA
"1132",7,2,1,2,1,8,0,0,1,0,1,1168,4,1,"CMat",11,10,12,13,14,15,16,9
"1133",7,2,2,2,1,8,0,0,1,0,1,1107,83,0,"CMat",75,76,77,78,79,80,81,82
"1134",7,2,3,1,1,2,2,1,1,1,1,1100,11,1,"CMat",12,11,NA,NA,NA,NA,NA,NA
"1135",7,2,4,2,1,8,0,0,1,1,0,1204,92,0,"CMat",84,85,86,87,88,89,90,91
"1136",7,2,5,2,1,4,0,0,1,1,0,1102,12,1,"CMat",7,4,2,6,NA,NA,NA,NA
"1137",7,2,6,2,1,8,0,0,1,0,1,1956,101,0,"CMat",93,94,95,96,97,98,99,100
"1138",7,2,7,1,1,2,2,1,1,1,1,1003,13,1,"CMat",9,13,NA,NA,NA,NA,NA,NA
"1139",7,2,8,2,1,2,0,0,1,1,0,886,104,0,"CMat",102,103,NA,NA,NA,NA,NA,NA
"1140",7,2,9,2,1,8,0,0,2,1,1,1225,1,1,"CMat",16,14,11,15,12,10,13,9
"1141",7,2,10,2,1,8,0,0,1,1,0,2396,113,0,"CMat",105,106,107,108,109,110,111,112
"1142",7,2,11,2,1,8,0,0,2,1,1,1578,7,1,"CMat",14,10,12,15,16,11,13,9
"1143",7,2,12,2,1,4,0,0,1,1,0,1107,118,0,"CMat",114,115,116,117,NA,NA,NA,NA
"1144",7,2,13,1,1,2,1,2,1,1,1,956,11,1,"CMat",11,10,NA,NA,NA,NA,NA,NA
"1145",7,2,14,1,1,8,8,1,2,1,0,1263,126,0,"CMat",119,120,121,122,123,124,125,126
"1146",7,2,15,2,1,8,0,0,2,1,1,1283,4,1,"CMat",9,15,14,10,13,16,12,11
"1147",7,2,16,2,1,4,0,0,2,1,1,1127,131,0,"CMat",127,128,129,130,NA,NA,NA,NA
"1148",7,2,17,2,1,4,0,0,2,1,1,1044,8,1,"CMat",11,16,9,10,NA,NA,NA,NA
"1149",7,2,18,2,1,4,0,0,1,1,0,963,136,0,"CMat",132,133,134,135,NA,NA,NA,NA
"1150",7,2,19,1,1,8,5,4,1,1,1,1179,14,1,"CMat",13,12,16,10,14,9,11,15
"1151",7,2,20,1,1,4,1,4,1,1,1,1068,137,0,"CMat",137,138,139,140,NA,NA,NA,NA
"1152",7,2,21,1,1,2,2,1,1,1,1,974,14,1,"CMat",9,14,NA,NA,NA,NA,NA,NA
"1153",7,2,22,1,1,4,3,2,1,1,1,1166,143,0,"CMat",141,142,143,144,NA,NA,NA,NA
"1154",7,2,23,1,1,2,1,2,1,1,1,1028,9,1,"CMat",9,10,NA,NA,NA,NA,NA,NA
"1155",7,2,24,1,1,8,4,5,2,1,0,1172,148,0,"CMat",145,146,147,148,149,150,151,152
"1156",7,3,1,2,1,2,0,0,2,1,1,1063,6,1,"CMat",12,16,NA,NA,NA,NA,NA,NA
"1157",7,3,2,1,1,4,4,1,2,1,0,1069,156,0,"CMat",153,154,155,156,NA,NA,NA,NA
"1158",7,3,3,2,1,4,0,0,1,1,0,1132,15,1,"CMat",5,8,2,4,NA,NA,NA,NA
"1159",7,3,4,1,1,4,2,3,2,1,0,1112,158,0,"CMat",157,158,159,160,NA,NA,NA,NA
"1160",7,3,5,2,1,2,0,0,2,1,1,961,3,1,"CMat",16,12,NA,NA,NA,NA,NA,NA
"1161",7,3,6,1,1,2,1,2,1,1,1,1294,161,0,"CMat",161,162,NA,NA,NA,NA,NA,NA
"1162",7,3,7,2,1,2,0,0,2,1,1,992,3,1,"CMat",16,13,NA,NA,NA,NA,NA,NA
"1163",7,3,8,1,1,2,1,2,1,1,1,796,163,0,"CMat",163,164,NA,NA,NA,NA,NA,NA
"1164",7,3,9,1,1,4,3,2,1,1,1,831,9,1,"CMat",12,16,9,10,NA,NA,NA,NA
"1165",7,3,10,1,1,8,2,7,2,1,0,1271,166,0,"CMat",165,166,167,168,169,170,171,172
"1166",7,3,11,2,1,8,0,0,1,1,0,1194,14,1,"CMat",7,6,1,4,2,5,8,3
"1167",7,3,12,2,1,2,0,0,1,1,0,1156,175,0,"CMat",173,174,NA,NA,NA,NA,NA,NA
"1168",7,3,13,1,1,2,2,1,1,1,1,1091,13,1,"CMat",10,13,NA,NA,NA,NA,NA,NA
"1169",7,3,14,1,1,4,3,2,2,1,0,953,178,0,"CMat",176,177,178,179,NA,NA,NA,NA
"1170",7,3,15,1,1,2,1,2,1,1,1,760,10,1,"CMat",10,15,NA,NA,NA,NA,NA,NA
"1171",7,3,16,1,1,4,2,3,2,1,0,1234,181,0,"CMat",180,181,182,183,NA,NA,NA,NA
"1172",7,3,17,1,1,2,1,2,2,1,0,1366,1,1,"CMat",1,6,NA,NA,NA,NA,NA,NA
"1173",7,3,18,2,1,2,0,0,1,1,0,809,186,0,"CMat",184,185,NA,NA,NA,NA,NA,NA
"1174",7,3,19,1,1,8,2,7,2,1,0,1030,1,1,"CMat",8,1,2,6,4,5,3,7
"1175",7,3,20,1,1,4,3,2,1,1,1,724,189,0,"CMat",187,188,189,190,NA,NA,NA,NA
"1176",7,3,21,2,1,8,0,0,2,1,1,1597,8,1,"CMat",9,14,12,13,16,15,11,10
"1177",7,3,22,2,1,8,0,0,2,1,1,1436,199,0,"CMat",191,192,193,194,195,196,197,198
"1178",7,3,23,1,1,8,3,6,1,1,1,1089,15,1,"CMat",10,14,15,11,16,9,13,12
"1179",7,3,24,1,1,4,4,1,1,1,1,916,203,0,"CMat",200,201,202,203,NA,NA,NA,NA
"1180",7,4,1,1,1,8,7,2,1,1,1,819,16,1,"CMat",9,10,13,11,15,12,16,14
"1181",7,4,2,2,1,4,0,0,2,1,1,2396,208,0,"CMat",204,205,206,207,NA,NA,NA,NA
"1182",7,4,3,2,1,2,0,0,1,1,0,1322,15,1,"CMat",2,5,NA,NA,NA,NA,NA,NA
"1183",7,4,4,1,1,2,2,1,1,1,1,953,210,0,"CMat",209,210,NA,NA,NA,NA,NA,NA
"1184",7,4,5,2,1,2,0,0,2,0,0,1824,11,1,"CMat",8,5,NA,NA,NA,NA,NA,NA
"1185",7,4,6,1,1,2,1,2,1,1,1,1363,211,0,"CMat",211,212,NA,NA,NA,NA,NA,NA
"1186",7,4,7,1,1,8,1,8,1,0,0,1891,6,1,"CMat",6,3,8,1,4,2,7,5
"1187",7,4,8,1,1,4,1,4,2,1,0,1295,213,0,"CMat",213,214,215,216,NA,NA,NA,NA
"1188",7,4,9,2,1,2,0,0,1,1,0,777,9,1,"CMat",5,8,NA,NA,NA,NA,NA,NA
"1189",7,4,10,2,1,8,0,0,2,1,1,1319,225,0,"CMat",217,218,219,220,221,222,223,224
"1190",7,4,11,2,1,4,0,0,2,1,1,1005,2,1,"CMat",10,13,15,16,NA,NA,NA,NA
"1191",7,4,12,2,1,8,0,0,1,1,0,987,234,0,"CMat",226,227,228,229,230,231,232,233
"1192",7,4,13,1,1,4,2,3,2,1,0,1046,6,1,"CMat",7,6,8,5,NA,NA,NA,NA
"1193",7,4,14,1,1,4,1,4,2,1,0,1269,235,0,"CMat",235,236,237,238,NA,NA,NA,NA
"1194",7,4,15,1,1,4,3,2,1,1,1,1124,14,1,"CMat",12,11,14,9,NA,NA,NA,NA
"1195",7,4,17,2,1,8,0,0,1,1,0,1014,14,1,"CMat",6,7,3,8,5,4,1,2
"1196",7,4,18,2,1,8,0,0,2,1,1,1287,252,0,"CMat",244,245,246,247,248,249,250,251
"1197",7,4,19,1,1,2,1,2,1,1,1,1272,13,1,"CMat",13,9,NA,NA,NA,NA,NA,NA
"1198",7,4,20,2,1,8,0,0,1,1,0,1601,261,0,"CMat",253,254,255,256,257,258,259,260
"1199",7,4,21,2,1,8,0,0,2,0,0,1399,13,1,"CMat",3,1,7,6,5,8,4,2
"1200",7,4,22,2,1,4,0,0,1,1,0,1062,266,0,"CMat",262,263,264,265,NA,NA,NA,NA
"1201",7,4,23,1,1,4,4,1,1,1,1,1030,14,1,"CMat",9,13,16,14,NA,NA,NA,NA
"1202",7,4,24,2,1,2,0,0,1,1,0,1344,269,0,"CMat",267,268,NA,NA,NA,NA,NA,NA
"1203",7,5,1,2,1,2,0,0,2,1,1,1290,7,1,"CMat",14,11,NA,NA,NA,NA,NA,NA
"1204",7,5,2,2,1,8,0,0,2,1,1,1210,278,0,"CMat",270,271,272,273,274,275,276,277
"1205",7,5,3,1,1,4,2,3,1,1,1,964,9,1,"CMat",14,9,12,15,NA,NA,NA,NA
"1206",7,5,4,2,1,2,0,0,2,1,1,1273,281,0,"CMat",279,280,NA,NA,NA,NA,NA,NA
"1207",7,5,5,2,1,8,0,0,2,1,1,1844,6,1,"CMat",15,14,10,9,11,12,16,13
"1208",7,5,6,1,1,2,2,1,2,1,0,2063,283,0,"CMat",282,283,NA,NA,NA,NA,NA,NA
"1209",7,5,7,1,1,4,1,4,1,1,1,1807,16,1,"CMat",16,9,13,12,NA,NA,NA,NA
"1210",7,5,8,1,1,4,3,2,1,1,1,806,286,0,"CMat",284,285,286,287,NA,NA,NA,NA
"1211",7,5,9,1,1,8,3,6,1,0,0,1091,2,1,"CMat",5,4,2,7,3,1,6,8
"1212",7,5,10,1,1,4,3,2,1,1,1,1193,290,0,"CMat",288,289,290,291,NA,NA,NA,NA
"1213",7,5,11,2,1,2,0,0,2,1,1,966,7,1,"CMat",11,14,NA,NA,NA,NA,NA,NA
"1214",7,5,12,2,1,8,0,0,1,1,0,1689,300,0,"CMat",292,293,294,295,296,297,298,299
"1215",7,5,13,2,1,2,0,0,2,1,1,1394,2,1,"CMat",16,13,NA,NA,NA,NA,NA,NA
"1216",7,5,14,2,1,2,0,0,1,1,0,1541,303,0,"CMat",301,302,NA,NA,NA,NA,NA,NA
"1217",7,5,15,2,1,2,0,0,1,1,0,1333,13,1,"CMat",3,2,NA,NA,NA,NA,NA,NA
"1218",7,5,16,2,1,8,0,0,1,1,0,997,312,0,"CMat",304,305,306,307,308,309,310,311
"1219",7,5,17,1,1,2,1,2,2,1,0,962,1,1,"CMat",1,5,NA,NA,NA,NA,NA,NA
"1220",7,5,18,2,1,4,0,0,1,1,0,1220,317,0,"CMat",313,314,315,316,NA,NA,NA,NA
"1221",7,5,19,1,1,2,2,1,2,1,0,808,4,1,"CMat",7,4,NA,NA,NA,NA,NA,NA
"1222",7,5,20,2,1,4,0,0,1,0,1,1184,322,0,"CMat",318,319,320,321,NA,NA,NA,NA
"1223",7,5,21,1,1,4,2,3,2,1,0,827,2,1,"CMat",3,2,1,7,NA,NA,NA,NA
"1224",7,5,22,1,1,4,3,2,1,1,1,1491,325,0,"CMat",323,324,325,326,NA,NA,NA,NA
"1225",7,5,23,1,1,8,3,6,2,1,0,805,2,1,"CMat",1,3,2,6,5,7,8,4
"1226",7,5,24,1,1,8,7,2,1,1,1,920,333,0,"CMat",327,328,329,330,331,332,333,334
"1227",7,6,1,2,1,2,0,0,2,1,1,849,6,1,"CMat",13,16,NA,NA,NA,NA,NA,NA
"1228",7,6,2,1,1,8,7,2,1,1,1,857,341,0,"CMat",335,336,337,338,339,340,341,342
"1229",7,6,4,1,1,8,1,8,1,1,1,654,343,0,"CMat",343,344,345,346,347,348,349,350
"1230",7,6,5,2,1,8,0,0,1,1,0,1130,13,1,"CMat",5,8,7,4,2,1,6,3
"1231",7,6,6,2,1,2,0,0,2,1,1,616,353,0,"CMat",351,352,NA,NA,NA,NA,NA,NA
"1232",7,6,7,1,1,8,7,2,1,1,1,469,16,1,"CMat",9,15,12,13,10,14,16,11
"1233",7,6,8,1,1,8,1,8,1,1,1,743,354,0,"CMat",354,355,356,357,358,359,360,361
"1234",7,6,9,1,1,4,3,2,1,1,1,508,16,1,"CMat",13,15,16,9,NA,NA,NA,NA
"1235",7,6,10,1,1,2,2,1,2,1,0,404,363,0,"CMat",362,363,NA,NA,NA,NA,NA,NA
"1236",7,6,11,1,1,8,8,1,2,1,0,545,8,1,"CMat",1,2,4,6,7,5,3,8
"1237",7,6,12,1,1,4,4,1,1,1,1,387,367,0,"CMat",364,365,366,367,NA,NA,NA,NA
"1238",7,6,13,1,1,4,2,3,2,0,1,1558,13,1,"CMat",15,13,12,14,NA,NA,NA,NA
"1239",7,6,14,2,1,8,0,0,1,1,0,1007,376,0,"CMat",368,369,370,371,372,373,374,375
"1240",7,6,15,2,1,2,0,0,1,1,0,620,9,1,"CMat",5,4,NA,NA,NA,NA,NA,NA
"1241",7,6,16,1,1,4,2,3,2,1,0,1093,378,0,"CMat",377,378,379,380,NA,NA,NA,NA
"1242",7,6,17,2,1,2,0,0,1,1,0,615,16,1,"CMat",6,4,NA,NA,NA,NA,NA,NA
"1243",7,6,18,1,1,4,2,3,2,1,0,1270,382,0,"CMat",381,382,383,384,NA,NA,NA,NA
"1244",7,6,19,1,1,2,1,2,2,1,0,688,6,1,"CMat",6,1,NA,NA,NA,NA,NA,NA
"1245",7,6,20,1,1,8,2,7,1,1,1,1072,386,0,"CMat",385,386,387,388,389,390,391,392
"1246",7,6,21,2,1,4,0,0,1,1,0,704,15,1,"CMat",7,6,8,3,NA,NA,NA,NA
"1247",7,6,22,2,1,2,0,0,2,1,1,799,395,0,"CMat",393,394,NA,NA,NA,NA,NA,NA
"1248",7,6,23,1,1,8,5,4,1,1,1,676,13,1,"CMat",16,11,12,14,13,15,10,9
"1249",7,6,24,2,1,2,0,0,1,1,0,716,398,0,"CMat",396,397,NA,NA,NA,NA,NA,NA
"1250",7,7,1,1,1,4,2,3,1,1,1,408,10,1,"CMat",15,10,11,13,NA,NA,NA,NA
"1251",7,7,2,2,1,2,0,0,2,1,1,995,401,0,"CMat",399,400,NA,NA,NA,NA,NA,NA
"1252",7,7,3,2,1,2,0,0,1,1,0,672,13,1,"CMat",6,5,NA,NA,NA,NA,NA,NA
"1253",7,7,4,1,1,4,4,1,1,1,1,459,405,0,"CMat",402,403,404,405,NA,NA,NA,NA
"1254",7,7,5,2,1,4,0,0,2,1,1,812,8,1,"CMat",14,12,16,11,NA,NA,NA,NA
"1255",7,7,6,2,1,8,0,0,2,0,0,725,414,0,"CMat",406,407,408,409,410,411,412,413
"1256",7,7,7,2,1,8,0,0,2,1,1,1278,5,1,"CMat",10,16,11,13,12,14,9,15
"1257",7,7,8,2,1,2,0,0,1,1,0,784,417,0,"CMat",415,416,NA,NA,NA,NA,NA,NA
"1258",7,7,9,2,1,8,0,0,1,1,0,1071,13,1,"CMat",1,3,4,2,5,6,8,7
"1259",7,7,10,1,1,4,2,3,1,1,1,955,419,0,"CMat",418,419,420,421,NA,NA,NA,NA
"1260",7,7,11,1,1,4,1,4,2,1,0,943,8,1,"CMat",8,7,6,2,NA,NA,NA,NA
"1261",7,7,12,1,1,4,3,2,2,1,0,643,424,0,"CMat",422,423,424,425,NA,NA,NA,NA
"1262",7,7,13,1,1,2,1,2,1,1,1,470,10,1,"CMat",10,11,NA,NA,NA,NA,NA,NA
"1263",7,7,14,2,1,8,0,0,2,0,0,503,434,0,"CMat",426,427,428,429,430,431,432,433
"1264",7,7,15,1,1,4,3,2,1,1,1,437,16,1,"CMat",15,11,16,12,NA,NA,NA,NA
"1265",7,7,16,2,1,2,0,0,2,1,1,894,437,0,"CMat",435,436,NA,NA,NA,NA,NA,NA
"1266",7,7,17,1,1,4,2,3,2,1,0,997,1,1,"CMat",3,1,2,5,NA,NA,NA,NA
"1267",7,7,18,2,1,2,0,0,2,1,1,912,440,0,"CMat",438,439,NA,NA,NA,NA,NA,NA
"1268",7,7,19,2,1,2,0,0,2,1,1,913,5,1,"CMat",11,14,NA,NA,NA,NA,NA,NA
"1269",7,7,20,1,1,8,3,6,2,1,0,1103,443,0,"CMat",441,442,443,444,445,446,447,448
"1270",7,7,21,2,1,4,0,0,1,1,0,829,10,1,"CMat",3,1,8,4,NA,NA,NA,NA
"1271",7,7,22,1,1,8,3,6,2,1,0,1120,451,0,"CMat",449,450,451,452,453,454,455,456
"1272",7,7,23,2,1,8,0,0,1,0,1,928,7,1,"CMat",14,11,16,15,9,10,12,13
"1273",7,7,24,2,1,4,0,0,1,1,0,1357,461,0,"CMat",457,458,459,460,NA,NA,NA,NA
"1274",7,8,1,2,1,2,0,0,1,1,0,1617,12,1,"CMat",6,4,NA,NA,NA,NA,NA,NA
"1275",7,8,2,2,1,4,0,0,2,1,1,824,466,0,"CMat",462,463,464,465,NA,NA,NA,NA
"1276",7,8,3,1,1,4,2,3,2,1,0,746,2,1,"CMat",6,2,3,7,NA,NA,NA,NA
"1277",7,8,4,1,1,8,8,1,2,1,0,2149,474,0,"CMat",467,468,469,470,471,472,473,474
"1278",7,8,5,2,1,4,0,0,2,1,1,1337,7,1,"CMat",16,12,11,9,NA,NA,NA,NA
"1279",7,8,6,2,1,4,0,0,2,1,1,739,479,0,"CMat",475,476,477,478,NA,NA,NA,NA
"1280",7,8,7,1,1,2,1,2,2,1,0,786,8,1,"CMat",8,5,NA,NA,NA,NA,NA,NA
"1281",7,8,8,2,1,4,0,0,2,1,1,787,484,0,"CMat",480,481,482,483,NA,NA,NA,NA
"1282",7,8,9,1,1,4,3,2,1,1,1,711,12,1,"CMat",10,16,12,15,NA,NA,NA,NA
"1283",7,8,10,1,1,8,8,1,2,1,0,825,492,0,"CMat",485,486,487,488,489,490,491,492
"1284",7,8,11,1,1,2,1,2,1,0,0,893,2,1,"CMat",2,7,NA,NA,NA,NA,NA,NA
"1285",7,8,12,2,1,4,0,0,2,1,1,881,497,0,"CMat",493,494,495,496,NA,NA,NA,NA
"1286",7,8,13,2,1,4,0,0,1,1,0,792,11,1,"CMat",4,8,6,1,NA,NA,NA,NA
"1287",7,8,14,1,1,8,6,3,1,1,1,1228,503,0,"CMat",498,499,500,501,502,503,504,505
"1288",7,8,15,2,1,2,0,0,2,1,1,1144,3,1,"CMat",13,16,NA,NA,NA,NA,NA,NA
"1289",7,8,16,2,1,2,0,0,1,1,0,855,508,0,"CMat",506,507,NA,NA,NA,NA,NA,NA
"1290",7,8,17,1,1,8,1,8,1,1,1,1027,16,1,"CMat",16,10,14,12,15,11,13,9
"1291",7,8,19,2,1,2,0,0,2,1,1,947,4,1,"CMat",10,15,NA,NA,NA,NA,NA,NA
"1292",7,8,20,2,1,8,0,0,2,1,1,1279,519,0,"CMat",511,512,513,514,515,516,517,518
"1293",7,8,21,1,1,2,1,2,1,1,1,993,9,1,"CMat",9,11,NA,NA,NA,NA,NA,NA
"1294",7,8,22,1,1,2,1,2,2,1,0,901,520,0,"CMat",520,521,NA,NA,NA,NA,NA,NA
"1295",7,8,23,2,1,4,0,0,1,1,0,892,15,1,"CMat",7,3,1,2,NA,NA,NA,NA
"1296",7,8,24,1,1,4,4,1,2,1,0,1922,525,0,"CMat",522,523,524,525,NA,NA,NA,NA
"1297",7,9,1,1,1,2,1,2,2,1,0,883,6,1,"CMat",6,3,NA,NA,NA,NA,NA,NA
"1298",7,9,2,1,1,2,2,1,1,1,1,756,527,0,"CMat",526,527,NA,NA,NA,NA,NA,NA
"1299",7,9,3,2,1,4,0,0,1,0,1,856,6,1,"CMat",9,11,15,13,NA,NA,NA,NA
"1300",7,9,4,1,1,2,1,2,2,1,0,826,528,0,"CMat",528,529,NA,NA,NA,NA,NA,NA
"1301",7,9,5,1,1,8,7,2,2,1,0,1143,8,1,"CMat",7,3,6,2,5,4,8,1
"1302",7,9,6,1,1,2,1,2,1,1,1,639,530,0,"CMat",530,531,NA,NA,NA,NA,NA,NA
"1303",7,9,7,1,1,2,1,2,1,1,1,594,9,1,"CMat",9,10,NA,NA,NA,NA,NA,NA
"1304",7,9,8,2,1,8,0,0,2,1,1,1022,540,0,"CMat",532,533,534,535,536,537,538,539
"1305",7,9,9,2,1,4,0,0,1,1,0,800,11,1,"CMat",3,4,2,6,NA,NA,NA,NA
"1306",7,9,10,2,1,2,0,0,2,1,1,3275,543,0,"CMat",541,542,NA,NA,NA,NA,NA,NA
"1307",7,9,11,2,1,2,0,0,1,1,0,766,16,1,"CMat",8,4,NA,NA,NA,NA,NA,NA
"1308",7,9,12,2,1,2,0,0,1,1,0,682,546,0,"CMat",544,545,NA,NA,NA,NA,NA,NA
"1309",7,9,13,2,1,2,0,0,1,1,0,628,12,1,"CMat",4,1,NA,NA,NA,NA,NA,NA
"1310",7,9,14,1,1,8,2,7,1,1,1,701,548,0,"CMat",547,548,549,550,551,552,553,554
"1311",7,9,15,1,1,2,1,2,1,1,1,2557,16,1,"CMat",16,15,NA,NA,NA,NA,NA,NA
"1312",7,9,16,2,1,2,0,0,2,1,1,1048,557,0,"CMat",555,556,NA,NA,NA,NA,NA,NA
"1313",7,9,17,1,1,2,2,1,1,1,1,611,12,1,"CMat",16,12,NA,NA,NA,NA,NA,NA
"1314",7,9,18,1,1,2,2,1,1,1,1,1160,559,0,"CMat",558,559,NA,NA,NA,NA,NA,NA
"1315",7,9,19,2,1,8,0,0,1,1,0,848,9,1,"CMat",4,2,7,1,8,3,5,6
"1316",7,9,20,2,1,8,0,0,2,0,0,1520,568,0,"CMat",560,561,562,563,564,565,566,567
"1317",7,9,21,1,1,2,2,1,2,1,0,1912,1,1,"CMat",3,1,NA,NA,NA,NA,NA,NA
"1318",7,9,22,1,1,2,2,1,1,1,1,808,570,0,"CMat",569,570,NA,NA,NA,NA,NA,NA
"1319",7,9,23,1,1,8,1,8,1,1,1,757,13,1,"CMat",13,16,9,11,12,15,10,14
"1320",7,9,24,2,1,4,0,0,1,1,0,783,575,0,"CMat",571,572,573,574,NA,NA,NA,NA
"1321",8,2,1,1,1,8,5,4,2,1,0,1278,1,1,"CMat",4,8,6,5,1,3,7,2
"1322",8,2,2,1,1,2,1,2,1,1,1,1036,72,0,"CMat",72,73,NA,NA,NA,NA,NA,NA
"1323",8,2,3,1,1,8,5,4,1,1,1,1111,11,1,"CMat",13,10,12,14,11,16,15,9
"1324",8,2,4,2,1,4,0,0,2,1,1,1903,78,0,"CMat",74,75,76,77,NA,NA,NA,NA
"1325",8,2,5,1,1,2,1,2,2,1,0,1159,8,1,"CMat",8,2,NA,NA,NA,NA,NA,NA
"1326",8,2,6,1,1,4,1,4,1,1,1,1646,79,0,"CMat",79,80,81,82,NA,NA,NA,NA
"1327",8,2,7,1,1,4,2,3,1,0,0,1861,5,1,"CMat",6,5,8,7,NA,NA,NA,NA
"1328",8,2,8,2,1,4,0,0,2,1,1,1104,87,0,"CMat",83,84,85,86,NA,NA,NA,NA
"1329",8,2,9,2,1,4,0,0,1,1,0,1277,16,1,"CMat",5,7,3,6,NA,NA,NA,NA
"1330",8,2,10,2,1,8,0,0,2,1,1,1111,96,0,"CMat",88,89,90,91,92,93,94,95
"1331",8,2,11,1,1,4,1,4,2,0,1,1107,15,1,"CMat",15,13,12,11,NA,NA,NA,NA
"1332",8,2,12,1,1,4,2,3,2,1,0,1227,98,0,"CMat",97,98,99,100,NA,NA,NA,NA
"1333",8,2,13,1,1,8,1,8,2,0,1,1070,15,1,"CMat",15,11,12,9,16,10,14,13
"1334",8,2,14,1,1,8,2,7,2,1,0,1663,102,0,"CMat",101,102,103,104,105,106,107,108
"1335",8,2,15,1,1,4,3,2,1,1,1,869,15,1,"CMat",10,16,15,14,NA,NA,NA,NA
"1336",8,2,16,1,1,8,3,6,1,0,0,2271,111,0,"CMat",109,110,111,112,113,114,115,116
"1337",8,2,17,1,1,4,2,3,2,1,0,1229,2,1,"CMat",8,2,7,6,NA,NA,NA,NA
"1338",8,2,18,2,1,2,0,0,2,1,1,1550,119,0,"CMat",117,118,NA,NA,NA,NA,NA,NA
"1339",8,2,19,1,1,4,3,2,2,1,0,1001,3,1,"CMat",1,6,3,5,NA,NA,NA,NA
"1340",8,2,20,1,1,8,8,1,1,1,1,1503,127,0,"CMat",120,121,122,123,124,125,126,127
"1341",8,2,21,1,1,8,4,5,1,1,1,1094,12,1,"CMat",9,16,15,12,14,11,10,13
"1342",8,2,22,1,1,8,4,5,1,1,1,823,131,0,"CMat",128,129,130,131,132,133,134,135
"1343",8,2,23,2,1,2,0,0,1,1,0,778,16,1,"CMat",2,5,NA,NA,NA,NA,NA,NA
"1344",8,2,24,2,1,2,0,0,1,1,0,1277,138,0,"CMat",136,137,NA,NA,NA,NA,NA,NA
"1345",8,3,1,1,1,4,3,2,1,1,1,664,9,1,"CMat",13,16,9,12,NA,NA,NA,NA
"1346",8,3,2,1,1,8,8,1,2,1,0,1275,146,0,"CMat",139,140,141,142,143,144,145,146
"1347",8,3,3,2,1,4,0,0,1,1,0,801,15,1,"CMat",2,6,3,5,NA,NA,NA,NA
"1348",8,3,4,2,1,8,0,0,2,1,1,925,155,0,"CMat",147,148,149,150,151,152,153,154
"1349",8,3,5,2,1,8,0,0,2,1,1,1084,8,1,"CMat",9,11,12,14,10,15,16,13
"1350",8,3,6,1,1,4,4,1,1,1,1,535,159,0,"CMat",156,157,158,159,NA,NA,NA,NA
"1351",8,3,7,2,1,8,0,0,1,1,0,1222,12,1,"CMat",6,7,8,1,2,3,4,5
"1352",8,3,8,2,1,4,0,0,1,1,0,1020,164,0,"CMat",160,161,162,163,NA,NA,NA,NA
"1353",8,3,9,1,1,8,4,5,2,1,0,1479,8,1,"CMat",1,5,2,8,7,3,4,6
"1354",8,3,10,1,1,4,1,4,1,1,1,1296,165,0,"CMat",165,166,167,168,NA,NA,NA,NA
"1355",8,3,11,1,1,4,3,2,2,1,0,1253,8,1,"CMat",5,3,8,2,NA,NA,NA,NA
"1356",8,3,12,2,1,2,0,0,2,1,1,1188,171,0,"CMat",169,170,NA,NA,NA,NA,NA,NA
"1357",8,3,13,1,1,4,1,4,1,1,1,1294,15,1,"CMat",15,13,16,10,NA,NA,NA,NA
"1358",8,3,14,1,1,8,6,3,2,1,0,1015,177,0,"CMat",172,173,174,175,176,177,178,179
"1359",8,3,15,1,1,8,8,1,2,1,0,978,7,1,"CMat",5,8,1,6,4,3,2,7
"1360",8,3,16,2,1,4,0,0,2,1,1,1041,184,0,"CMat",180,181,182,183,NA,NA,NA,NA
"1361",8,3,17,2,1,8,0,0,1,1,0,1132,10,1,"CMat",7,1,2,8,5,6,4,3
"1362",8,3,18,2,1,2,0,0,2,1,1,1039,187,0,"CMat",185,186,NA,NA,NA,NA,NA,NA
"1363",8,3,19,2,1,8,0,0,1,1,0,746,11,1,"CMat",1,2,7,6,5,4,8,3
"1364",8,3,20,1,1,2,1,2,1,1,1,991,188,0,"CMat",188,189,NA,NA,NA,NA,NA,NA
"1365",8,3,21,1,1,2,1,2,2,1,0,1084,7,1,"CMat",7,6,NA,NA,NA,NA,NA,NA
"1366",8,3,22,2,1,8,0,0,1,1,0,877,198,0,"CMat",190,191,192,193,194,195,196,197
"1367",8,3,23,1,1,4,1,4,2,1,0,1603,3,1,"CMat",3,1,2,8,NA,NA,NA,NA
"1368",8,3,24,2,1,2,0,0,2,1,1,787,201,0,"CMat",199,200,NA,NA,NA,NA,NA,NA
"1369",8,4,1,1,1,8,2,7,1,1,1,748,13,1,"CMat",9,13,16,15,14,11,12,10
"1370",8,4,2,1,1,4,2,3,1,1,1,917,203,0,"CMat",202,203,204,205,NA,NA,NA,NA
"1371",8,4,3,2,1,8,0,0,2,0,0,948,10,1,"CMat",1,3,7,8,4,5,6,2
"1372",8,4,4,1,1,2,1,2,2,1,0,944,206,0,"CMat",206,207,NA,NA,NA,NA,NA,NA
"1373",8,4,5,1,1,8,4,5,1,1,1,926,14,1,"CMat",11,16,10,14,13,15,9,12
"1374",8,4,6,1,1,8,4,5,2,1,0,902,211,0,"CMat",208,209,210,211,212,213,214,215
"1375",8,4,7,1,1,4,4,1,2,1,0,923,5,1,"CMat",8,7,1,5,NA,NA,NA,NA
"1376",8,4,8,2,1,2,0,0,2,1,1,1288,218,0,"CMat",216,217,NA,NA,NA,NA,NA,NA
"1377",8,4,9,1,1,4,3,2,1,1,1,862,13,1,"CMat",12,10,13,11,NA,NA,NA,NA
"1378",8,4,10,2,1,2,0,0,1,1,0,909,221,0,"CMat",219,220,NA,NA,NA,NA,NA,NA
"1379",8,4,11,2,1,2,0,0,2,1,1,764,1,1,"CMat",10,11,NA,NA,NA,NA,NA,NA
"1380",8,4,12,1,1,2,2,1,2,1,0,800,223,0,"CMat",222,223,NA,NA,NA,NA,NA,NA
"1381",8,4,13,1,1,8,6,3,1,1,1,899,9,1,"CMat",14,15,16,12,13,9,11,10
"1382",8,4,14,1,1,2,2,1,2,1,0,706,225,0,"CMat",224,225,NA,NA,NA,NA,NA,NA
"1383",8,4,15,1,1,4,1,4,2,1,0,863,4,1,"CMat",4,7,8,2,NA,NA,NA,NA
"1384",8,4,16,1,1,8,3,6,1,1,1,1210,228,0,"CMat",226,227,228,229,230,231,232,233
"1385",8,4,17,1,1,8,4,5,2,1,0,813,3,1,"CMat",5,1,8,3,6,2,7,4
"1386",8,4,18,1,1,4,2,3,1,1,1,834,235,0,"CMat",234,235,236,237,NA,NA,NA,NA
"1387",8,4,19,2,1,4,0,0,1,1,0,906,11,1,"CMat",1,3,6,4,NA,NA,NA,NA
"1388",8,4,20,2,1,8,0,0,1,1,0,612,246,0,"CMat",238,239,240,241,242,243,244,245
"1389",8,4,21,2,1,8,0,0,1,0,1,1119,5,1,"CMat",11,9,12,10,15,16,14,13
"1390",8,4,22,2,1,2,0,0,2,1,1,517,249,0,"CMat",247,248,NA,NA,NA,NA,NA,NA
"1391",8,4,23,2,1,8,0,0,2,1,1,724,1,1,"CMat",11,13,16,9,15,14,10,12
"1392",8,4,24,2,1,4,0,0,2,1,1,555,254,0,"CMat",250,251,252,253,NA,NA,NA,NA
"1393",8,5,1,2,1,2,0,0,2,1,1,637,5,1,"CMat",16,14,NA,NA,NA,NA,NA,NA
"1394",8,5,2,2,1,8,0,0,1,1,0,799,263,0,"CMat",255,256,257,258,259,260,261,262
"1395",8,5,3,1,1,4,3,2,1,1,1,680,9,1,"CMat",15,11,9,13,NA,NA,NA,NA
"1396",8,5,4,2,1,8,0,0,1,1,0,1371,272,0,"CMat",264,265,266,267,268,269,270,271
"1397",8,5,5,2,1,8,0,0,2,0,0,1256,14,1,"CMat",8,2,5,6,4,1,3,7
"1398",8,5,6,1,1,4,4,1,1,1,1,844,276,0,"CMat",273,274,275,276,NA,NA,NA,NA
"1399",8,5,7,2,1,8,0,0,1,1,0,1886,11,1,"CMat",4,3,1,6,7,2,8,5
"1400",8,5,8,1,1,2,2,1,2,1,0,1221,278,0,"CMat",277,278,NA,NA,NA,NA,NA,NA
"1401",8,5,9,2,1,2,0,0,2,1,1,728,3,1,"CMat",15,10,NA,NA,NA,NA,NA,NA
"1402",8,5,10,1,1,8,1,8,1,1,1,1305,279,0,"CMat",279,280,281,282,283,284,285,286
"1403",8,5,11,2,1,4,0,0,2,1,1,670,5,1,"CMat",15,16,14,9,NA,NA,NA,NA
