"","Subnum","Block","Trial","Old","testcdisgard","Setsize","Serpos","Lag","Response","Correctness","Side","RT","WhichProbe","Stimkind","FileCondi","prob1","prob2","prob3","prob4","prob5","prob6","prob7","prob8"
"1",1,2,1,2,1,8,0,0,2,1,1,1537,1,1,"MIX2",3,4,1,2,63,64,65,66
"2",1,2,2,2,1,8,0,0,1,1,0,1563,6,1,"MIX2",1,3,2,4,67,68,69,70
"3",1,2,3,1,1,8,8,1,2,0,1,694,3,1,"MIX2",1,4,2,3,71,72,73,74
"4",1,2,4,1,1,8,4,5,2,0,1,1506,3,1,"MIX2",4,1,3,2,75,76,77,78
"5",1,2,5,2,1,2,0,0,2,1,1,1768,80,0,"MIX2",4,79,NA,NA,NA,NA,NA,NA
"6",1,2,6,1,1,2,2,1,2,1,0,1308,3,1,"MIX2",3,81,NA,NA,NA,NA,NA,NA
"7",1,2,7,2,1,2,0,0,2,1,1,1036,2,1,"MIX2",1,82,NA,NA,NA,NA,NA,NA
"8",1,2,8,2,1,4,0,0,1,1,0,1192,85,0,"MIX2",1,4,83,84,NA,NA,NA,NA
"9",1,2,9,1,1,2,2,1,1,1,1,1092,1,1,"MIX2",1,86,NA,NA,NA,NA,NA,NA
"10",1,2,10,2,1,4,0,0,1,1,0,1207,89,0,"MIX2",1,2,87,88,NA,NA,NA,NA
"11",1,2,11,2,1,8,0,0,1,0,1,1302,1,1,"MIX2",2,1,4,3,90,91,92,93
"12",1,2,12,1,1,2,2,1,1,1,1,1068,94,0,"MIX2",2,94,NA,NA,NA,NA,NA,NA
"13",1,2,13,2,1,2,0,0,1,1,0,1083,96,0,"MIX2",2,95,NA,NA,NA,NA,NA,NA
"14",1,2,14,1,1,2,2,1,2,1,0,939,1,1,"MIX2",1,97,NA,NA,NA,NA,NA,NA
"15",1,2,15,2,1,2,0,0,2,1,1,1808,99,0,"MIX2",2,98,NA,NA,NA,NA,NA,NA
"16",1,2,16,1,1,2,2,1,2,1,0,1579,3,1,"MIX2",3,100,NA,NA,NA,NA,NA,NA
"17",1,2,17,1,1,4,1,4,2,1,0,1797,101,0,"MIX2",1,3,101,102,NA,NA,NA,NA
"18",1,2,18,1,1,4,1,4,1,1,1,1509,2,1,"MIX2",2,4,103,104,NA,NA,NA,NA
"19",1,2,19,2,1,2,0,0,1,1,0,1395,106,0,"MIX2",2,105,NA,NA,NA,NA,NA,NA
"20",1,2,20,2,1,2,0,0,1,1,0,1031,5,1,"MIX2",1,107,NA,NA,NA,NA,NA,NA
"21",1,2,21,2,1,2,0,0,1,1,0,1041,109,0,"MIX2",4,108,NA,NA,NA,NA,NA,NA
"22",1,2,22,2,1,8,0,0,1,1,0,1014,114,0,"MIX2",4,2,1,3,110,111,112,113
"23",1,2,23,1,1,4,3,2,2,1,0,949,4,1,"MIX2",4,2,115,116,NA,NA,NA,NA
"24",1,2,24,2,1,2,0,0,1,0,1,938,4,1,"MIX2",1,117,NA,NA,NA,NA,NA,NA
"25",1,3,1,2,1,2,0,0,1,1,0,882,119,0,"MIX2",3,118,NA,NA,NA,NA,NA,NA
"26",1,3,2,2,1,8,0,0,2,1,1,2135,124,0,"MIX2",3,4,2,1,120,121,122,123
"27",1,3,3,2,1,4,0,0,1,1,0,872,127,0,"MIX2",3,1,125,126,NA,NA,NA,NA
"28",1,3,4,2,1,2,0,0,2,1,1,808,129,0,"MIX2",4,128,NA,NA,NA,NA,NA,NA
"29",1,3,5,2,1,8,0,0,2,0,0,1809,8,1,"MIX2",4,1,3,2,130,131,132,133
"30",1,3,6,2,1,2,0,0,2,1,1,1060,135,0,"MIX2",1,134,NA,NA,NA,NA,NA,NA
"31",1,3,7,1,1,8,8,1,2,1,0,1090,3,1,"MIX2",1,3,2,4,136,137,138,139
"32",1,3,8,2,1,8,0,0,1,1,0,1245,144,0,"MIX2",2,1,3,4,140,141,142,143
"33",1,3,9,2,1,8,0,0,1,1,0,835,149,0,"MIX2",4,1,3,2,145,146,147,148
"34",1,3,10,1,1,4,2,3,2,1,0,1184,151,0,"MIX2",2,1,150,151,NA,NA,NA,NA
"35",1,3,11,2,1,2,0,0,1,1,0,619,5,1,"MIX2",1,152,NA,NA,NA,NA,NA,NA
"36",1,3,12,2,1,4,0,0,1,1,0,714,155,0,"MIX2",4,2,153,154,NA,NA,NA,NA
"37",1,3,13,1,1,2,2,1,1,1,1,881,156,0,"MIX2",2,156,NA,NA,NA,NA,NA,NA
"38",1,3,14,1,1,8,2,7,1,1,1,1438,2,1,"MIX2",4,3,2,1,157,158,159,160
"39",1,3,15,2,1,8,0,0,2,1,1,1605,1,1,"MIX2",4,3,1,2,161,162,163,164
"40",1,3,16,1,1,2,2,1,1,1,1,831,165,0,"MIX2",3,165,NA,NA,NA,NA,NA,NA
"41",1,3,17,2,1,8,0,0,2,0,0,1157,5,1,"MIX2",2,3,4,1,166,167,168,169
"42",1,3,18,2,1,8,0,0,1,1,0,912,174,0,"MIX2",4,1,3,2,170,171,172,173
"43",1,3,19,1,1,8,7,2,2,1,0,953,2,1,"MIX2",3,1,4,2,175,176,177,178
"44",1,3,20,2,1,8,0,0,1,1,0,1427,5,1,"MIX2",3,1,4,2,179,180,181,182
"45",1,3,21,1,1,2,2,1,1,1,1,669,183,0,"MIX2",2,183,NA,NA,NA,NA,NA,NA
"46",1,3,22,1,1,8,2,7,2,1,0,970,185,0,"MIX2",2,1,4,3,184,185,186,187
"47",1,3,23,2,1,4,0,0,1,1,0,698,190,0,"MIX2",1,2,188,189,NA,NA,NA,NA
"48",1,3,24,2,1,4,0,0,2,1,1,806,3,1,"MIX2",2,3,191,192,NA,NA,NA,NA
"49",1,4,1,1,1,2,1,2,2,1,0,966,193,0,"MIX2",1,193,NA,NA,NA,NA,NA,NA
"50",1,4,2,2,1,8,0,0,2,1,1,1038,198,0,"MIX2",1,4,3,2,194,195,196,197
"51",1,4,3,2,1,8,0,0,1,1,0,933,6,1,"MIX2",1,3,4,2,199,200,201,202
"52",1,4,4,1,1,8,8,1,1,1,1,1215,205,0,"MIX2",2,3,1,4,203,204,205,206
"53",1,4,5,2,1,2,0,0,2,1,1,890,2,1,"MIX2",3,207,NA,NA,NA,NA,NA,NA
"54",1,4,6,2,1,4,0,0,2,1,1,1045,210,0,"MIX2",1,4,208,209,NA,NA,NA,NA
"55",1,4,7,1,1,4,1,4,1,1,1,1595,2,1,"MIX2",4,2,211,212,NA,NA,NA,NA
"56",1,4,8,2,1,8,0,0,2,1,1,1371,217,0,"MIX2",4,1,3,2,213,214,215,216
"57",1,4,9,1,1,2,1,2,2,1,0,1095,218,0,"MIX2",1,218,NA,NA,NA,NA,NA,NA
"58",1,4,10,2,1,8,0,0,1,1,0,2130,8,1,"MIX2",4,1,2,3,219,220,221,222
"59",1,4,11,2,1,8,0,0,1,1,0,1052,227,0,"MIX2",2,4,1,3,223,224,225,226
"60",1,4,12,2,1,4,0,0,1,1,0,1083,6,1,"MIX2",4,2,228,229,NA,NA,NA,NA
"61",1,4,13,1,1,4,2,3,1,1,1,1079,231,0,"MIX2",3,4,230,231,NA,NA,NA,NA
"62",1,4,14,1,1,4,3,2,1,1,1,1148,232,0,"MIX2",4,2,232,233,NA,NA,NA,NA
"63",1,4,15,2,1,8,0,0,2,1,1,811,238,0,"MIX2",3,2,4,1,234,235,236,237
"64",1,4,16,2,1,8,0,0,1,1,0,826,243,0,"MIX2",4,2,3,1,239,240,241,242
"65",1,4,17,2,1,4,0,0,2,1,1,1641,4,1,"MIX2",4,3,244,245,NA,NA,NA,NA
"66",1,4,18,2,1,4,0,0,1,1,0,670,248,0,"MIX2",3,4,246,247,NA,NA,NA,NA
"67",1,4,19,1,1,8,1,8,1,1,1,1204,252,0,"MIX2",1,2,3,4,249,250,251,252
"68",1,4,20,1,1,4,1,4,1,1,1,951,3,1,"MIX2",2,3,253,254,NA,NA,NA,NA
"69",1,4,21,2,1,4,0,0,1,1,0,1240,5,1,"MIX2",2,1,255,256,NA,NA,NA,NA
"70",1,4,22,1,1,8,5,4,1,1,1,1092,260,0,"MIX2",3,2,4,1,257,258,259,260
"71",1,4,23,1,1,2,2,1,2,1,0,738,261,0,"MIX2",1,261,NA,NA,NA,NA,NA,NA
"72",1,4,24,2,1,8,0,0,2,1,1,941,2,1,"MIX2",3,4,2,1,262,263,264,265
"73",1,5,1,1,1,4,2,3,1,1,1,1159,4,1,"MIX2",3,4,266,267,NA,NA,NA,NA
"74",1,5,2,2,1,2,0,0,1,1,0,1035,8,1,"MIX2",2,268,NA,NA,NA,NA,NA,NA
"75",1,5,3,2,1,8,0,0,2,1,1,841,4,1,"MIX2",1,4,2,3,269,270,271,272
"76",1,5,4,1,1,2,1,2,2,0,1,980,4,1,"MIX2",4,273,NA,NA,NA,NA,NA,NA
"77",1,5,5,2,1,2,0,0,2,1,1,896,1,1,"MIX2",2,274,NA,NA,NA,NA,NA,NA
"78",1,5,6,1,1,8,5,4,2,0,1,1396,1,1,"MIX2",2,1,3,4,275,276,277,278
"79",1,5,7,2,1,8,0,0,2,1,1,821,4,1,"MIX2",2,1,3,4,279,280,281,282
"80",1,5,8,1,1,4,4,1,1,1,1,772,4,1,"MIX2",1,4,283,284,NA,NA,NA,NA
"81",1,5,9,2,1,8,0,0,1,1,0,1046,5,1,"MIX2",1,2,4,3,285,286,287,288
"82",1,5,10,1,1,2,1,2,2,1,0,856,289,0,"MIX2",2,289,NA,NA,NA,NA,NA,NA
"83",1,5,11,2,1,8,0,0,2,1,1,774,294,0,"MIX2",2,3,1,4,290,291,292,293
"84",1,5,12,2,1,2,0,0,1,1,0,753,296,0,"MIX2",2,295,NA,NA,NA,NA,NA,NA
"85",1,5,13,2,1,8,0,0,2,1,1,994,3,1,"MIX2",3,2,4,1,297,298,299,300
"86",1,5,14,1,1,8,7,2,1,1,1,922,302,0,"MIX2",3,2,4,1,301,302,303,304
"87",1,5,15,2,1,8,0,0,2,1,1,838,3,1,"MIX2",1,4,2,3,305,306,307,308
"88",1,5,16,1,1,2,1,2,2,1,0,904,2,1,"MIX2",2,309,NA,NA,NA,NA,NA,NA
"89",1,5,17,1,1,8,6,3,2,1,0,1276,2,1,"MIX2",3,4,2,1,310,311,312,313
"90",1,5,18,1,1,4,3,2,2,1,0,985,1,1,"MIX2",1,2,314,315,NA,NA,NA,NA
"91",1,5,19,2,1,2,0,0,2,1,1,1087,317,0,"MIX2",4,316,NA,NA,NA,NA,NA,NA
"92",1,5,20,2,1,2,0,0,1,1,0,910,319,0,"MIX2",2,318,NA,NA,NA,NA,NA,NA
"93",1,5,21,2,1,8,0,0,1,1,0,1257,324,0,"MIX2",2,3,4,1,320,321,322,323
"94",1,5,22,2,1,4,0,0,2,1,1,1015,1,1,"MIX2",3,2,325,326,NA,NA,NA,NA
"95",1,5,23,1,1,8,5,4,2,1,0,814,1,1,"MIX2",4,3,1,2,327,328,329,330
"96",1,5,24,2,1,2,0,0,1,1,0,721,8,1,"MIX2",3,331,NA,NA,NA,NA,NA,NA
"97",1,6,1,1,1,2,1,2,2,1,0,869,332,0,"MIX2",3,332,NA,NA,NA,NA,NA,NA
"98",1,6,2,1,1,4,3,2,2,1,0,787,334,0,"MIX2",3,2,333,334,NA,NA,NA,NA
"99",1,6,3,2,1,4,0,0,1,1,0,826,7,1,"MIX2",2,3,335,336,NA,NA,NA,NA
"100",1,6,4,1,1,2,2,1,2,0,1,1161,1,1,"MIX2",1,337,NA,NA,NA,NA,NA,NA
"101",1,6,5,2,1,2,0,0,1,1,0,647,8,1,"MIX2",3,338,NA,NA,NA,NA,NA,NA
"102",1,6,6,1,1,4,3,2,2,1,0,845,340,0,"MIX2",3,4,339,340,NA,NA,NA,NA
"103",1,6,7,2,1,8,0,0,2,1,1,1197,1,1,"MIX2",3,4,1,2,341,342,343,344
"104",1,6,8,2,1,2,0,0,1,1,0,792,346,0,"MIX2",1,345,NA,NA,NA,NA,NA,NA
"105",1,6,9,2,1,4,0,0,2,1,1,655,349,0,"MIX2",2,3,347,348,NA,NA,NA,NA
"106",1,6,10,1,1,4,4,1,2,1,0,780,350,0,"MIX2",4,1,350,351,NA,NA,NA,NA
"107",1,6,11,1,1,2,2,1,1,1,1,664,1,1,"MIX2",1,352,NA,NA,NA,NA,NA,NA
"108",1,6,12,1,1,2,2,1,2,1,0,745,353,0,"MIX2",1,353,NA,NA,NA,NA,NA,NA
"109",1,6,13,1,1,2,1,2,1,1,1,822,354,0,"MIX2",4,354,NA,NA,NA,NA,NA,NA
"110",1,6,14,2,1,2,0,0,1,1,0,1361,5,1,"MIX2",1,355,NA,NA,NA,NA,NA,NA
"111",1,6,15,1,1,4,2,3,2,0,1,1025,3,1,"MIX2",1,3,356,357,NA,NA,NA,NA
"112",1,6,16,2,1,8,0,0,1,1,0,951,5,1,"MIX2",3,1,2,4,358,359,360,361
"113",1,6,17,2,1,2,0,0,1,1,0,827,363,0,"MIX2",1,362,NA,NA,NA,NA,NA,NA
"114",1,6,18,2,1,8,0,0,1,1,0,911,8,1,"MIX2",1,3,4,2,364,365,366,367
"115",1,6,19,2,1,8,0,0,2,1,1,937,372,0,"MIX2",3,4,1,2,368,369,370,371
"116",1,6,20,2,1,2,0,0,2,1,1,862,374,0,"MIX2",1,373,NA,NA,NA,NA,NA,NA
"117",1,6,21,2,1,4,0,0,1,1,0,779,6,1,"MIX2",1,2,375,376,NA,NA,NA,NA
"118",1,6,22,1,1,4,3,2,1,1,1,1561,378,0,"MIX2",4,2,377,378,NA,NA,NA,NA
"119",1,6,23,2,1,8,0,0,2,1,1,1267,383,0,"MIX2",4,1,2,3,379,380,381,382
"120",1,6,24,1,1,8,8,1,2,1,0,1063,386,0,"MIX2",4,3,1,2,384,385,386,387
"121",1,7,1,1,1,4,1,4,2,1,0,1040,388,0,"MIX2",2,3,388,389,NA,NA,NA,NA
"122",1,7,2,1,1,8,6,3,2,1,0,878,391,0,"MIX2",1,4,3,2,390,391,392,393
"123",1,7,3,1,1,4,4,1,1,1,1,850,394,0,"MIX2",3,1,394,395,NA,NA,NA,NA
"124",1,7,4,2,1,8,0,0,1,1,0,936,400,0,"MIX2",2,3,1,4,396,397,398,399
"125",1,7,5,2,1,8,0,0,2,1,1,1595,2,1,"MIX2",4,1,3,2,401,402,403,404
"126",1,7,6,2,1,8,0,0,1,1,0,755,409,0,"MIX2",3,1,4,2,405,406,407,408
"127",1,7,7,1,1,4,2,3,2,1,0,1915,4,1,"MIX2",4,1,410,411,NA,NA,NA,NA
"128",1,7,8,2,1,2,0,0,2,1,1,1009,413,0,"MIX2",3,412,NA,NA,NA,NA,NA,NA
"129",1,7,9,2,1,8,0,0,2,1,1,1433,4,1,"MIX2",4,1,3,2,414,415,416,417
"130",1,7,10,1,1,2,2,1,1,1,1,835,418,0,"MIX2",1,418,NA,NA,NA,NA,NA,NA
"131",1,7,11,1,1,4,3,2,1,1,1,1241,419,0,"MIX2",4,2,419,420,NA,NA,NA,NA
"132",1,7,12,2,1,4,0,0,2,1,1,823,3,1,"MIX2",3,2,421,422,NA,NA,NA,NA
"133",1,7,13,1,1,4,4,1,1,1,1,790,4,1,"MIX2",4,2,423,424,NA,NA,NA,NA
"134",1,7,14,1,1,8,4,5,2,1,0,838,427,0,"MIX2",2,3,1,4,425,426,427,428
"135",1,7,15,2,1,8,0,0,2,1,1,1252,4,1,"MIX2",3,1,2,4,429,430,431,432
"136",1,7,16,1,1,2,2,1,1,1,1,678,433,0,"MIX2",2,433,NA,NA,NA,NA,NA,NA
"137",1,7,17,2,1,2,0,0,2,1,1,750,1,1,"MIX2",3,434,NA,NA,NA,NA,NA,NA
"138",1,7,18,2,1,4,0,0,1,1,0,846,437,0,"MIX2",3,2,435,436,NA,NA,NA,NA
"139",1,7,19,2,1,8,0,0,1,1,0,894,8,1,"MIX2",3,1,2,4,438,439,440,441
"140",1,7,20,1,1,8,6,3,2,1,0,979,442,0,"MIX2",1,4,3,2,442,443,444,445
"141",1,7,21,2,1,4,0,0,1,1,0,995,448,0,"MIX2",3,1,446,447,NA,NA,NA,NA
"142",1,7,22,2,1,8,0,0,1,1,0,740,6,1,"MIX2",1,4,3,2,449,450,451,452
"143",1,7,23,1,1,4,3,2,1,1,1,749,1,1,"MIX2",1,2,453,454,NA,NA,NA,NA
"144",1,7,24,2,1,4,0,0,2,1,1,935,2,1,"MIX2",1,3,455,456,NA,NA,NA,NA
"145",1,8,1,2,1,2,0,0,1,1,0,1212,7,1,"MIX2",1,457,NA,NA,NA,NA,NA,NA
"146",1,8,2,1,1,8,5,4,2,1,0,931,459,0,"MIX2",1,4,2,3,458,459,460,461
"147",1,8,3,2,1,8,0,0,2,1,1,2165,2,1,"MIX2",2,4,1,3,462,463,464,465
"148",1,8,4,1,1,2,2,1,1,1,1,754,1,1,"MIX2",1,466,NA,NA,NA,NA,NA,NA
"149",1,8,5,1,1,2,2,1,2,1,0,519,1,1,"MIX2",1,467,NA,NA,NA,NA,NA,NA
"150",1,8,6,1,1,2,1,2,1,1,1,581,468,0,"MIX2",1,468,NA,NA,NA,NA,NA,NA
"151",1,8,7,2,1,2,0,0,2,1,1,681,3,1,"MIX2",1,469,NA,NA,NA,NA,NA,NA
"152",1,8,8,1,1,2,1,2,1,1,1,688,4,1,"MIX2",4,470,NA,NA,NA,NA,NA,NA
"153",1,8,9,2,1,8,0,0,1,1,0,877,6,1,"MIX2",1,3,2,4,471,472,473,474
"154",1,8,10,1,1,4,3,2,2,1,0,882,475,0,"MIX2",2,4,475,476,NA,NA,NA,NA
"155",1,8,11,1,1,2,1,2,1,1,1,826,3,1,"MIX2",3,477,NA,NA,NA,NA,NA,NA
"156",1,8,12,1,1,8,4,5,2,0,1,880,478,0,"MIX2",3,4,2,1,478,479,480,481
"157",1,8,13,1,1,2,2,1,2,1,0,633,482,0,"MIX2",3,482,NA,NA,NA,NA,NA,NA
"158",1,8,14,2,1,8,0,0,1,1,0,862,487,0,"MIX2",2,4,3,1,483,484,485,486
"159",1,8,15,1,1,8,2,7,2,1,0,852,491,0,"MIX2",1,4,2,3,488,489,490,491
"160",1,8,16,2,1,8,0,0,1,1,0,800,496,0,"MIX2",4,3,1,2,492,493,494,495
"161",1,8,17,2,1,8,0,0,1,1,0,831,501,0,"MIX2",4,2,3,1,497,498,499,500
"162",1,8,18,2,1,4,0,0,2,1,1,740,504,0,"MIX2",4,1,502,503,NA,NA,NA,NA
"163",1,8,19,1,1,8,5,4,1,1,1,1911,3,1,"MIX2",3,1,2,4,505,506,507,508
"164",1,8,20,1,1,4,3,2,1,1,1,987,509,0,"MIX2",3,2,509,510,NA,NA,NA,NA
"165",1,8,21,2,1,2,0,0,1,1,0,958,512,0,"MIX2",1,511,NA,NA,NA,NA,NA,NA
"166",1,8,22,2,1,4,0,0,1,1,0,1222,6,1,"MIX2",4,1,513,514,NA,NA,NA,NA
"167",1,8,23,1,1,8,2,7,1,1,1,1030,4,1,"MIX2",2,1,4,3,515,516,517,518
"168",1,8,24,2,1,4,0,0,1,1,0,676,521,0,"MIX2",2,3,519,520,NA,NA,NA,NA
"169",1,9,1,1,1,2,2,1,1,1,1,631,1,1,"MIX2",1,522,NA,NA,NA,NA,NA,NA
"170",1,9,2,2,1,8,0,0,2,1,1,902,527,0,"MIX2",4,3,1,2,523,524,525,526
"171",1,9,3,1,1,4,3,2,2,1,0,897,1,1,"MIX2",2,1,528,529,NA,NA,NA,NA
"172",1,9,4,2,1,2,0,0,1,1,0,849,8,1,"MIX2",4,530,NA,NA,NA,NA,NA,NA
"173",1,9,5,1,1,2,2,1,1,1,1,697,4,1,"MIX2",4,531,NA,NA,NA,NA,NA,NA
"174",1,9,6,2,1,8,0,0,1,1,0,788,536,0,"MIX2",4,2,1,3,532,533,534,535
"175",1,9,7,1,1,4,2,3,1,1,1,1356,538,0,"MIX2",2,3,537,538,NA,NA,NA,NA
"176",1,9,8,2,1,4,0,0,1,1,0,789,541,0,"MIX2",3,1,539,540,NA,NA,NA,NA
"177",1,9,9,1,1,2,1,2,1,1,1,614,542,0,"MIX2",3,542,NA,NA,NA,NA,NA,NA
"178",1,9,10,2,1,4,0,0,1,1,0,667,545,0,"MIX2",2,4,543,544,NA,NA,NA,NA
"179",1,9,11,1,1,2,1,2,2,0,1,1459,4,1,"MIX2",4,546,NA,NA,NA,NA,NA,NA
"180",1,9,12,2,1,8,0,0,1,1,0,1457,8,1,"MIX2",1,4,2,3,547,548,549,550
"181",1,9,13,1,1,8,3,6,2,1,0,1161,552,0,"MIX2",3,1,4,2,551,552,553,554
"182",1,9,14,1,1,8,3,6,1,1,1,962,558,0,"MIX2",3,2,1,4,555,556,557,558
"183",1,9,15,1,1,8,8,1,1,1,1,627,560,0,"MIX2",2,3,1,4,559,560,561,562
"184",1,9,16,1,1,2,2,1,1,1,1,646,1,1,"MIX2",1,563,NA,NA,NA,NA,NA,NA
"185",1,9,17,2,1,2,0,0,2,1,1,614,565,0,"MIX2",1,564,NA,NA,NA,NA,NA,NA
"186",1,9,18,2,1,2,0,0,2,1,1,744,567,0,"MIX2",2,566,NA,NA,NA,NA,NA,NA
"187",1,9,19,2,1,8,0,0,2,1,1,704,572,0,"MIX2",2,1,3,4,568,569,570,571
"188",1,9,20,2,1,4,0,0,1,1,0,803,575,0,"MIX2",3,4,573,574,NA,NA,NA,NA
"189",1,9,21,1,1,8,2,7,1,1,1,917,578,0,"MIX2",4,2,1,3,576,577,578,579
"190",1,9,22,2,1,8,0,0,1,1,0,838,584,0,"MIX2",2,1,4,3,580,581,582,583
"191",1,9,23,1,1,2,1,2,2,1,0,624,2,1,"MIX2",2,585,NA,NA,NA,NA,NA,NA
"192",1,9,24,1,1,4,2,3,1,1,1,775,587,0,"MIX2",3,4,586,587,NA,NA,NA,NA
"193",2,2,1,2,1,2,0,0,1,0,1,6987,65,0,"MIX2",3,64,NA,NA,NA,NA,NA,NA
"194",2,2,2,2,1,8,0,0,1,1,0,1345,70,0,"MIX2",2,3,4,1,66,67,68,69
"195",2,2,3,1,1,4,3,2,2,1,0,1115,72,0,"MIX2",3,2,71,72,NA,NA,NA,NA
"196",2,2,4,1,1,2,2,1,2,1,0,545,4,1,"MIX2",4,73,NA,NA,NA,NA,NA,NA
"197",2,2,5,2,1,4,0,0,2,1,1,1025,76,0,"MIX2",2,4,74,75,NA,NA,NA,NA
"198",2,2,6,1,1,8,3,6,1,0,0,648,80,0,"MIX2",2,4,1,3,77,78,79,80
"199",2,2,7,2,1,4,0,0,2,1,1,866,83,0,"MIX2",1,4,81,82,NA,NA,NA,NA
"200",2,2,8,2,1,8,0,0,1,1,0,718,88,0,"MIX2",2,1,4,3,84,85,86,87
"201",2,2,9,2,1,4,0,0,2,1,1,890,2,1,"MIX2",2,4,89,90,NA,NA,NA,NA
"202",2,2,10,1,1,2,2,1,1,1,1,585,3,1,"MIX2",3,91,NA,NA,NA,NA,NA,NA
"203",2,2,11,1,1,8,5,4,1,1,1,2235,3,1,"MIX2",4,3,1,2,92,93,94,95
"204",2,2,12,2,1,2,0,0,1,0,1,4827,97,0,"MIX2",4,96,NA,NA,NA,NA,NA,NA
"205",2,2,13,2,1,4,0,0,1,1,0,1241,100,0,"MIX2",1,3,98,99,NA,NA,NA,NA
"206",2,2,14,1,1,4,1,4,1,0,0,508,101,0,"MIX2",2,3,101,102,NA,NA,NA,NA
"207",2,2,15,2,1,4,0,0,1,1,0,438,105,0,"MIX2",2,1,103,104,NA,NA,NA,NA
"208",2,2,16,1,1,8,5,4,1,0,0,621,106,0,"MIX2",2,4,3,1,106,107,108,109
"209",2,2,17,1,1,2,2,1,1,1,1,7742,1,1,"MIX2",1,110,NA,NA,NA,NA,NA,NA
"210",2,2,18,2,1,8,0,0,2,1,1,591,115,0,"MIX2",2,3,1,4,111,112,113,114
"211",2,2,19,1,1,8,1,8,2,0,1,808,116,0,"MIX2",1,3,2,4,116,117,118,119
"212",2,2,20,2,1,2,0,0,1,1,0,650,121,0,"MIX2",3,120,NA,NA,NA,NA,NA,NA
"213",2,2,21,2,1,8,0,0,2,1,1,590,1,1,"MIX2",1,4,2,3,122,123,124,125
"214",2,2,22,1,1,4,2,3,1,0,0,598,126,0,"MIX2",1,4,126,127,NA,NA,NA,NA
"215",2,2,23,1,1,2,2,1,1,1,1,945,128,0,"MIX2",4,128,NA,NA,NA,NA,NA,NA
"216",2,2,24,2,1,8,0,0,2,1,1,1285,4,1,"MIX2",4,2,3,1,129,130,131,132
"217",2,3,1,1,1,8,8,1,2,1,0,992,135,0,"MIX2",1,3,4,2,133,134,135,136
"218",2,3,2,1,1,8,3,6,1,1,1,1001,137,0,"MIX2",1,4,2,3,137,138,139,140
"219",2,3,3,2,1,2,0,0,1,1,0,1053,5,1,"MIX2",3,141,NA,NA,NA,NA,NA,NA
"220",2,3,4,1,1,4,2,3,1,1,1,787,142,0,"MIX2",1,3,142,143,NA,NA,NA,NA
"221",2,3,5,1,1,4,2,3,1,0,0,578,144,0,"MIX2",4,3,144,145,NA,NA,NA,NA
"222",2,3,6,2,1,8,0,0,1,1,0,1228,150,0,"MIX2",1,4,2,3,146,147,148,149
"223",2,3,7,2,1,2,0,0,2,0,0,4006,7,1,"MIX2",1,151,NA,NA,NA,NA,NA,NA
"224",2,3,8,1,1,2,2,1,2,1,0,721,2,1,"MIX2",2,152,NA,NA,NA,NA,NA,NA
"225",2,3,9,1,1,2,1,2,1,1,1,704,153,0,"MIX2",2,153,NA,NA,NA,NA,NA,NA
"226",2,3,10,2,1,2,0,0,1,1,0,903,155,0,"MIX2",2,154,NA,NA,NA,NA,NA,NA
"227",2,3,11,2,1,8,0,0,1,1,0,851,5,1,"MIX2",4,3,2,1,156,157,158,159
"228",2,3,12,2,1,4,0,0,1,1,0,846,162,0,"MIX2",1,3,160,161,NA,NA,NA,NA
"229",2,3,13,2,1,8,0,0,2,1,1,997,1,1,"MIX2",4,2,3,1,163,164,165,166
"230",2,3,14,1,1,8,6,3,1,1,1,957,169,0,"MIX2",4,3,2,1,167,168,169,170
"231",2,3,15,2,1,8,0,0,1,1,0,671,175,0,"MIX2",4,3,1,2,171,172,173,174
"232",2,3,16,1,1,4,2,3,1,1,1,668,3,1,"MIX2",2,3,176,177,NA,NA,NA,NA
"233",2,3,17,1,1,8,1,8,1,1,1,753,181,0,"MIX2",2,3,1,4,178,179,180,181
"234",2,3,18,2,1,4,0,0,1,1,0,634,5,1,"MIX2",2,4,182,183,NA,NA,NA,NA
"235",2,3,19,1,1,4,1,4,2,1,0,656,3,1,"MIX2",3,1,184,185,NA,NA,NA,NA
"236",2,3,20,1,1,4,4,1,1,1,1,526,1,1,"MIX2",1,2,186,187,NA,NA,NA,NA
"237",2,3,21,2,1,8,0,0,1,0,1,962,1,1,"MIX2",4,3,1,2,188,189,190,191
"238",2,3,22,2,1,4,0,0,1,1,0,891,194,0,"MIX2",3,1,192,193,NA,NA,NA,NA
"239",2,3,23,1,1,4,1,4,2,1,0,894,3,1,"MIX2",1,3,195,196,NA,NA,NA,NA
"240",2,3,24,1,1,4,1,4,2,0,1,1099,197,0,"MIX2",1,4,197,198,NA,NA,NA,NA
"241",2,4,1,2,1,2,0,0,1,1,0,815,8,1,"MIX2",2,199,NA,NA,NA,NA,NA,NA
"242",2,4,2,2,1,8,0,0,1,0,1,958,2,1,"MIX2",1,3,2,4,200,201,202,203
"243",2,4,3,1,1,4,2,3,1,1,1,743,2,1,"MIX2",2,3,204,205,NA,NA,NA,NA
"244",2,4,4,1,1,2,1,2,2,1,0,853,2,1,"MIX2",2,206,NA,NA,NA,NA,NA,NA
"245",2,4,5,1,1,4,2,3,2,1,0,770,207,0,"MIX2",1,2,207,208,NA,NA,NA,NA
"246",2,4,6,2,1,2,0,0,1,1,0,814,7,1,"MIX2",3,209,NA,NA,NA,NA,NA,NA
"247",2,4,7,2,1,2,0,0,1,1,0,520,211,0,"MIX2",1,210,NA,NA,NA,NA,NA,NA
"248",2,4,8,2,1,8,0,0,2,0,0,1013,5,1,"MIX2",1,3,2,4,212,213,214,215
"249",2,4,9,1,1,4,4,1,1,1,1,636,3,1,"MIX2",3,2,216,217,NA,NA,NA,NA
"250",2,4,10,2,1,2,0,0,2,1,1,917,219,0,"MIX2",3,218,NA,NA,NA,NA,NA,NA
"251",2,4,11,2,1,4,0,0,1,1,0,864,222,0,"MIX2",4,2,220,221,NA,NA,NA,NA
"252",2,4,12,1,1,8,8,1,1,1,1,1598,223,0,"MIX2",4,2,3,1,223,224,225,226
"253",2,4,13,1,1,4,1,4,1,1,1,781,227,0,"MIX2",4,1,227,228,NA,NA,NA,NA
"254",2,4,14,1,1,4,4,1,2,1,0,397,4,1,"MIX2",1,4,229,230,NA,NA,NA,NA
"255",2,4,15,1,1,2,2,1,1,1,1,409,2,1,"MIX2",2,231,NA,NA,NA,NA,NA,NA
"256",2,4,16,2,1,4,0,0,2,1,1,510,234,0,"MIX2",1,4,232,233,NA,NA,NA,NA
"257",2,4,17,1,1,4,4,1,2,1,0,761,4,1,"MIX2",1,4,235,236,NA,NA,NA,NA
"258",2,4,18,2,1,4,0,0,2,1,1,491,3,1,"MIX2",3,1,237,238,NA,NA,NA,NA
"259",2,4,19,2,1,4,0,0,1,0,1,998,3,1,"MIX2",4,1,239,240,NA,NA,NA,NA
"260",2,4,20,2,1,2,0,0,1,1,0,609,242,0,"MIX2",3,241,NA,NA,NA,NA,NA,NA
"261",2,4,21,1,1,4,4,1,2,1,0,345,244,0,"MIX2",1,4,243,244,NA,NA,NA,NA
"262",2,4,22,2,1,8,0,0,1,0,1,507,1,1,"MIX2",4,1,2,3,245,246,247,248
"263",2,4,23,1,1,8,6,3,1,0,0,1279,249,0,"MIX2",2,1,4,3,249,250,251,252
"264",2,4,24,2,1,8,0,0,2,1,1,620,257,0,"MIX2",4,3,2,1,253,254,255,256
"265",2,5,1,1,1,4,4,1,2,1,0,801,258,0,"MIX2",2,4,258,259,NA,NA,NA,NA
"266",2,5,2,2,1,8,0,0,1,1,0,624,264,0,"MIX2",2,4,1,3,260,261,262,263
"267",2,5,3,2,1,8,0,0,1,1,0,551,269,0,"MIX2",3,4,1,2,265,266,267,268
"268",2,5,4,1,1,2,2,1,2,1,0,821,270,0,"MIX2",1,270,NA,NA,NA,NA,NA,NA
"269",2,5,5,1,1,2,1,2,2,1,0,1359,4,1,"MIX2",4,271,NA,NA,NA,NA,NA,NA
"270",2,5,6,2,1,2,0,0,1,1,0,500,6,1,"MIX2",4,272,NA,NA,NA,NA,NA,NA
"271",2,5,7,1,1,4,4,1,1,1,1,496,274,0,"MIX2",4,1,273,274,NA,NA,NA,NA
"272",2,5,8,1,1,2,1,2,2,1,0,648,275,0,"MIX2",3,275,NA,NA,NA,NA,NA,NA
"273",2,5,9,1,1,2,1,2,2,1,0,457,276,0,"MIX2",3,276,NA,NA,NA,NA,NA,NA
"274",2,5,10,1,1,8,8,1,2,1,0,680,277,0,"MIX2",2,1,3,4,277,278,279,280
"275",2,5,11,2,1,2,0,0,2,1,1,664,282,0,"MIX2",4,281,NA,NA,NA,NA,NA,NA
"276",2,5,12,1,1,8,6,3,2,1,0,582,1,1,"MIX2",1,4,3,2,283,284,285,286
"277",2,5,13,2,1,4,0,0,1,1,0,534,289,0,"MIX2",3,4,287,288,NA,NA,NA,NA
"278",2,5,14,1,1,8,8,1,2,1,0,737,290,0,"MIX2",1,2,4,3,290,291,292,293
"279",2,5,15,2,1,8,0,0,1,1,0,939,298,0,"MIX2",1,3,4,2,294,295,296,297
"280",2,5,16,1,1,4,2,3,2,1,0,989,4,1,"MIX2",1,4,299,300,NA,NA,NA,NA
"281",2,5,17,1,1,2,1,2,1,1,1,713,301,0,"MIX2",1,301,NA,NA,NA,NA,NA,NA
"282",2,5,18,2,1,2,0,0,2,1,1,576,303,0,"MIX2",2,302,NA,NA,NA,NA,NA,NA
"283",2,5,19,2,1,2,0,0,2,1,1,652,4,1,"MIX2",2,304,NA,NA,NA,NA,NA,NA
"284",2,5,20,2,1,2,0,0,1,1,0,613,306,0,"MIX2",4,305,NA,NA,NA,NA,NA,NA
"285",2,5,21,1,1,2,1,2,2,1,0,904,1,1,"MIX2",1,307,NA,NA,NA,NA,NA,NA
"286",2,5,22,2,1,8,0,0,1,0,1,1134,1,1,"MIX2",2,1,4,3,308,309,310,311
"287",2,5,23,1,1,8,4,5,1,1,1,801,3,1,"MIX2",1,4,2,3,312,313,314,315
"288",2,5,24,1,1,4,1,4,2,1,0,784,4,1,"MIX2",1,4,316,317,NA,NA,NA,NA
"289",2,6,1,1,1,4,2,3,2,1,0,666,1,1,"MIX2",2,1,318,319,NA,NA,NA,NA
"290",2,6,2,1,1,8,3,6,1,1,1,552,4,1,"MIX2",2,3,4,1,320,321,322,323
"291",2,6,3,1,1,8,5,4,1,1,1,537,2,1,"MIX2",1,3,4,2,324,325,326,327
"292",2,6,4,1,1,4,3,2,1,1,1,556,3,1,"MIX2",1,3,328,329,NA,NA,NA,NA
"293",2,6,5,1,1,8,1,8,1,0,0,803,332,0,"MIX2",3,2,1,4,330,331,332,333
"294",2,6,6,2,1,2,0,0,1,1,0,863,5,1,"MIX2",3,334,NA,NA,NA,NA,NA,NA
"295",2,6,7,2,1,2,0,0,2,1,1,855,3,1,"MIX2",2,335,NA,NA,NA,NA,NA,NA
"296",2,6,8,1,1,8,6,3,2,1,0,694,3,1,"MIX2",4,3,2,1,336,337,338,339
"297",2,6,9,2,1,8,0,0,2,1,1,778,344,0,"MIX2",1,4,3,2,340,341,342,343
"298",2,6,10,2,1,2,0,0,1,1,0,710,346,0,"MIX2",1,345,NA,NA,NA,NA,NA,NA
"299",2,6,11,2,1,4,0,0,1,1,0,865,8,1,"MIX2",2,3,347,348,NA,NA,NA,NA
"300",2,6,12,2,1,8,0,0,1,1,0,907,353,0,"MIX2",1,4,3,2,349,350,351,352
"301",2,6,13,1,1,2,2,1,1,1,1,746,354,0,"MIX2",2,354,NA,NA,NA,NA,NA,NA
"302",2,6,14,2,1,4,0,0,1,1,0,876,6,1,"MIX2",2,1,355,356,NA,NA,NA,NA
"303",2,6,15,1,1,2,1,2,2,1,0,917,4,1,"MIX2",4,357,NA,NA,NA,NA,NA,NA
"304",2,6,16,1,1,8,3,6,1,1,1,1153,358,0,"MIX2",3,1,2,4,358,359,360,361
"305",2,6,17,2,1,8,0,0,2,1,1,650,366,0,"MIX2",2,4,3,1,362,363,364,365
"306",2,6,18,1,1,2,2,1,1,1,1,467,2,1,"MIX2",2,367,NA,NA,NA,NA,NA,NA
"307",2,6,19,1,1,4,2,3,2,1,0,592,4,1,"MIX2",4,2,368,369,NA,NA,NA,NA
"308",2,6,20,2,1,8,0,0,2,1,1,1103,374,0,"MIX2",4,2,1,3,370,371,372,373
"309",2,6,21,1,1,4,3,2,1,1,1,722,3,1,"MIX2",4,3,375,376,NA,NA,NA,NA
"310",2,6,22,2,1,4,0,0,2,0,0,893,7,1,"MIX2",3,4,377,378,NA,NA,NA,NA
"311",2,6,23,2,1,4,0,0,2,1,1,568,381,0,"MIX2",3,1,379,380,NA,NA,NA,NA
"312",2,6,24,2,1,4,0,0,1,1,0,705,8,1,"MIX2",2,3,382,383,NA,NA,NA,NA
"313",2,7,1,2,1,4,0,0,1,1,0,656,7,1,"MIX2",3,1,384,385,NA,NA,NA,NA
"314",2,7,2,1,1,4,1,4,1,1,1,790,387,0,"MIX2",3,1,386,387,NA,NA,NA,NA
"315",2,7,3,1,1,2,2,1,1,1,1,490,388,0,"MIX2",1,388,NA,NA,NA,NA,NA,NA
"316",2,7,4,1,1,4,3,2,1,1,1,742,389,0,"MIX2",3,2,389,390,NA,NA,NA,NA
"317",2,7,5,2,1,8,0,0,1,1,0,1530,395,0,"MIX2",4,1,2,3,391,392,393,394
"318",2,7,6,1,1,2,2,1,2,1,0,1575,1,1,"MIX2",1,396,NA,NA,NA,NA,NA,NA
"319",2,7,7,2,1,2,0,0,1,1,0,796,398,0,"MIX2",4,397,NA,NA,NA,NA,NA,NA
"320",2,7,8,2,1,2,0,0,2,1,1,1108,400,0,"MIX2",2,399,NA,NA,NA,NA,NA,NA
"321",2,7,9,2,1,4,0,0,1,0,1,736,4,1,"MIX2",4,3,401,402,NA,NA,NA,NA
"322",2,7,10,1,1,2,2,1,2,1,0,909,403,0,"MIX2",1,403,NA,NA,NA,NA,NA,NA
"323",2,7,11,1,1,2,2,1,2,1,0,595,404,0,"MIX2",2,404,NA,NA,NA,NA,NA,NA
"324",2,7,12,2,1,2,0,0,1,1,0,783,8,1,"MIX2",1,405,NA,NA,NA,NA,NA,NA
"325",2,7,13,2,1,8,0,0,1,1,0,719,5,1,"MIX2",2,1,4,3,406,407,408,409
"326",2,7,14,1,1,2,2,1,2,1,0,589,2,1,"MIX2",2,410,NA,NA,NA,NA,NA,NA
"327",2,7,15,1,1,8,1,8,2,1,0,686,412,0,"MIX2",1,4,3,2,411,412,413,414
"328",2,7,16,2,1,2,0,0,1,1,0,558,416,0,"MIX2",2,415,NA,NA,NA,NA,NA,NA
"329",2,7,17,2,1,8,0,0,2,1,1,600,421,0,"MIX2",3,1,2,4,417,418,419,420
"330",2,7,18,1,1,4,1,4,1,1,1,783,2,1,"MIX2",2,3,422,423,NA,NA,NA,NA
"331",2,7,19,2,1,8,0,0,2,0,0,919,5,1,"MIX2",1,4,3,2,424,425,426,427
"332",2,7,20,1,1,4,1,4,2,1,0,778,429,0,"MIX2",3,4,428,429,NA,NA,NA,NA
"333",2,7,21,1,1,4,4,1,2,1,0,500,431,0,"MIX2",2,4,430,431,NA,NA,NA,NA
"334",2,7,22,1,1,4,4,1,2,1,0,423,433,0,"MIX2",2,3,432,433,NA,NA,NA,NA
"335",2,7,23,1,1,8,4,5,2,1,0,726,4,1,"MIX2",2,4,3,1,434,435,436,437
"336",2,7,24,1,1,4,3,2,1,1,1,585,438,0,"MIX2",1,2,438,439,NA,NA,NA,NA
"337",2,8,1,2,1,8,0,0,2,1,1,886,2,1,"MIX2",3,1,4,2,440,441,442,443
"338",2,8,2,1,1,2,2,1,1,1,1,469,4,1,"MIX2",4,444,NA,NA,NA,NA,NA,NA
"339",2,8,3,2,1,8,0,0,2,0,0,819,7,1,"MIX2",2,3,4,1,445,446,447,448
"340",2,8,4,1,1,2,2,1,1,1,1,414,4,1,"MIX2",4,449,NA,NA,NA,NA,NA,NA
"341",2,8,5,2,1,8,0,0,1,1,0,757,454,0,"MIX2",2,4,1,3,450,451,452,453
"342",2,8,6,2,1,2,0,0,2,1,1,722,2,1,"MIX2",1,455,NA,NA,NA,NA,NA,NA
"343",2,8,7,2,1,2,0,0,1,0,1,913,4,1,"MIX2",1,456,NA,NA,NA,NA,NA,NA
"344",2,8,8,1,1,4,2,3,1,1,1,725,458,0,"MIX2",2,1,457,458,NA,NA,NA,NA
"345",2,8,9,2,1,2,0,0,2,1,1,3779,460,0,"MIX2",3,459,NA,NA,NA,NA,NA,NA
"346",2,8,10,2,1,4,0,0,2,0,0,1565,7,1,"MIX2",3,2,461,462,NA,NA,NA,NA
"347",2,8,11,1,1,8,6,3,1,1,1,655,466,0,"MIX2",3,4,1,2,463,464,465,466
"348",2,8,12,1,1,8,8,1,2,1,0,1044,467,0,"MIX2",2,3,1,4,467,468,469,470
"349",2,8,13,2,1,2,0,0,2,1,1,893,2,1,"MIX2",3,471,NA,NA,NA,NA,NA,NA
"350",2,8,14,2,1,8,0,0,2,1,1,602,476,0,"MIX2",1,4,3,2,472,473,474,475
"351",2,8,15,1,1,2,2,1,2,1,0,773,2,1,"MIX2",2,477,NA,NA,NA,NA,NA,NA
"352",2,8,16,2,1,8,0,0,2,0,0,3278,6,1,"MIX2",2,1,4,3,478,479,480,481
"353",2,8,17,1,1,4,1,4,2,1,0,570,3,1,"MIX2",2,3,482,483,NA,NA,NA,NA
"354",2,8,18,2,1,8,0,0,2,1,1,731,488,0,"MIX2",3,2,1,4,484,485,486,487
"355",2,8,19,1,1,2,1,2,2,1,0,673,489,0,"MIX2",3,489,NA,NA,NA,NA,NA,NA
"356",2,8,20,2,1,8,0,0,1,1,0,751,494,0,"MIX2",3,4,1,2,490,491,492,493
"357",2,8,21,2,1,2,0,0,2,1,1,626,496,0,"MIX2",3,495,NA,NA,NA,NA,NA,NA
"358",2,8,22,2,1,8,0,0,2,1,1,947,1,1,"MIX2",3,1,4,2,497,498,499,500
"359",2,8,23,2,1,8,0,0,1,1,0,636,505,0,"MIX2",1,2,3,4,501,502,503,504
"360",2,8,24,1,1,8,8,1,2,1,0,971,507,0,"MIX2",3,1,2,4,506,507,508,509
"361",2,9,1,2,1,8,0,0,2,1,1,536,514,0,"MIX2",4,2,1,3,510,511,512,513
"362",2,9,2,2,1,8,0,0,1,1,0,2072,519,0,"MIX2",4,1,3,2,515,516,517,518
"363",2,9,3,1,1,8,1,8,2,1,0,693,4,1,"MIX2",3,4,1,2,520,521,522,523
"364",2,9,4,1,1,8,2,7,2,1,0,633,3,1,"MIX2",1,4,3,2,524,525,526,527
"365",2,9,5,1,1,2,2,1,1,1,1,635,1,1,"MIX2",1,528,NA,NA,NA,NA,NA,NA
"366",2,9,6,2,1,8,0,0,1,1,0,962,8,1,"MIX2",4,3,1,2,529,530,531,532
"367",2,9,7,2,1,4,0,0,1,1,0,633,5,1,"MIX2",3,2,533,534,NA,NA,NA,NA
"368",2,9,8,2,1,4,0,0,1,1,0,615,537,0,"MIX2",1,2,535,536,NA,NA,NA,NA
"369",2,9,9,1,1,2,1,2,2,1,0,689,538,0,"MIX2",1,538,NA,NA,NA,NA,NA,NA
"370",2,9,10,2,1,4,0,0,2,1,1,1139,4,1,"MIX2",4,1,539,540,NA,NA,NA,NA
"371",2,9,11,1,1,4,2,3,2,1,0,1066,541,0,"MIX2",1,4,541,542,NA,NA,NA,NA
"372",2,9,12,2,1,8,0,0,2,1,1,663,547,0,"MIX2",4,2,3,1,543,544,545,546
"373",2,9,13,2,1,2,0,0,2,1,1,693,549,0,"MIX2",2,548,NA,NA,NA,NA,NA,NA
"374",2,9,14,1,1,8,6,3,2,1,0,828,552,0,"MIX2",1,2,3,4,550,551,552,553
"375",2,9,15,1,1,8,2,7,1,1,1,796,4,1,"MIX2",1,4,2,3,554,555,556,557
"376",2,9,16,1,1,8,3,6,1,0,0,2236,1,1,"MIX2",3,2,1,4,558,559,560,561
"377",2,9,17,2,1,2,0,0,2,1,1,774,563,0,"MIX2",2,562,NA,NA,NA,NA,NA,NA
"378",2,9,18,2,1,2,0,0,2,1,1,682,565,0,"MIX2",1,564,NA,NA,NA,NA,NA,NA
"379",2,9,19,2,1,4,0,0,1,1,0,930,568,0,"MIX2",1,3,566,567,NA,NA,NA,NA
"380",2,9,20,2,1,8,0,0,2,1,1,1110,573,0,"MIX2",3,2,4,1,569,570,571,572
"381",2,9,21,1,1,8,3,6,1,1,1,1154,2,1,"MIX2",2,1,3,4,574,575,576,577
"382",2,9,22,2,1,2,0,0,2,0,0,975,6,1,"MIX2",1,578,NA,NA,NA,NA,NA,NA
"383",2,9,23,1,1,2,1,2,2,0,1,619,579,0,"MIX2",4,579,NA,NA,NA,NA,NA,NA
"384",2,9,24,2,1,4,0,0,2,1,1,787,3,1,"MIX2",3,1,580,581,NA,NA,NA,NA
"385",3,2,1,1,1,8,5,4,2,1,0,936,73,0,"MIX2",1,3,2,4,71,72,73,74
"386",3,2,2,2,1,8,0,0,2,1,1,1988,1,1,"MIX2",2,1,3,4,75,76,77,78
"387",3,2,3,1,1,4,2,3,1,1,1,1628,2,1,"MIX2",1,2,79,80,NA,NA,NA,NA
"388",3,2,4,1,1,4,1,4,1,1,1,1586,81,0,"MIX2",2,3,81,82,NA,NA,NA,NA
"389",3,2,5,2,1,8,0,0,2,1,1,819,87,0,"MIX2",4,3,2,1,83,84,85,86
"390",3,2,6,1,1,2,1,2,1,1,1,1510,1,1,"MIX2",1,88,NA,NA,NA,NA,NA,NA
"391",3,2,7,1,1,4,1,4,2,1,0,834,90,0,"MIX2",1,4,89,90,NA,NA,NA,NA
"392",3,2,8,2,1,8,0,0,1,1,0,832,6,1,"MIX2",1,3,4,2,91,92,93,94
"393",3,2,9,2,1,8,0,0,1,1,0,814,99,0,"MIX2",2,1,3,4,95,96,97,98
"394",3,2,10,2,1,4,0,0,2,1,1,725,2,1,"MIX2",3,4,100,101,NA,NA,NA,NA
"395",3,2,11,2,1,8,0,0,1,1,0,1480,106,0,"MIX2",3,2,1,4,102,103,104,105
"396",3,2,12,2,1,8,0,0,2,1,1,554,111,0,"MIX2",2,3,1,4,107,108,109,110
"397",3,2,13,2,1,8,0,0,1,1,0,949,7,1,"MIX2",2,1,4,3,112,113,114,115
"398",3,2,14,1,1,4,3,2,2,1,0,839,116,0,"MIX2",4,2,116,117,NA,NA,NA,NA
"399",3,2,15,2,1,2,0,0,2,1,1,1177,3,1,"MIX2",1,118,NA,NA,NA,NA,NA,NA
"400",3,2,16,1,1,8,2,7,2,1,0,2183,3,1,"MIX2",3,4,1,2,119,120,121,122
"401",3,2,17,1,1,2,1,2,1,1,1,1300,2,1,"MIX2",2,123,NA,NA,NA,NA,NA,NA
"402",3,2,18,2,1,2,0,0,1,1,0,852,8,1,"MIX2",2,124,NA,NA,NA,NA,NA,NA
"403",3,2,19,1,1,8,3,6,1,1,1,1635,4,1,"MIX2",2,3,1,4,125,126,127,128
"404",3,2,20,2,1,8,0,0,1,1,0,834,5,1,"MIX2",2,4,1,3,129,130,131,132
"405",3,2,21,2,1,2,0,0,1,1,0,1156,6,1,"MIX2",1,133,NA,NA,NA,NA,NA,NA
"406",3,2,22,2,1,8,0,0,1,1,0,853,138,0,"MIX2",4,3,1,2,134,135,136,137
"407",3,2,23,1,1,2,2,1,2,1,0,1190,2,1,"MIX2",2,139,NA,NA,NA,NA,NA,NA
"408",3,2,24,2,1,2,0,0,1,1,0,744,141,0,"MIX2",2,140,NA,NA,NA,NA,NA,NA
"409",3,3,1,1,1,2,1,2,1,1,1,993,142,0,"MIX2",1,142,NA,NA,NA,NA,NA,NA
"410",3,3,2,2,1,8,0,0,1,1,0,968,147,0,"MIX2",2,4,1,3,143,144,145,146
"411",3,3,3,1,1,2,2,1,2,1,0,709,3,1,"MIX2",3,148,NA,NA,NA,NA,NA,NA
"412",3,3,4,1,1,2,1,2,1,1,1,893,149,0,"MIX2",1,149,NA,NA,NA,NA,NA,NA
"413",3,3,5,2,1,2,0,0,2,1,1,682,151,0,"MIX2",2,150,NA,NA,NA,NA,NA,NA
"414",3,3,6,1,1,2,1,2,2,1,0,914,3,1,"MIX2",3,152,NA,NA,NA,NA,NA,NA
"415",3,3,7,2,1,2,0,0,1,1,0,831,8,1,"MIX2",3,153,NA,NA,NA,NA,NA,NA
"416",3,3,8,1,1,2,2,1,2,1,0,801,154,0,"MIX2",2,154,NA,NA,NA,NA,NA,NA
"417",3,3,9,2,1,2,0,0,1,1,0,753,156,0,"MIX2",1,155,NA,NA,NA,NA,NA,NA
"418",3,3,10,2,1,8,0,0,1,1,0,1140,7,1,"MIX2",4,1,2,3,157,158,159,160
"419",3,3,11,2,1,8,0,0,2,1,1,694,1,1,"MIX2",1,3,4,2,161,162,163,164
"420",3,3,12,1,1,2,1,2,2,1,0,1053,3,1,"MIX2",3,165,NA,NA,NA,NA,NA,NA
"421",3,3,13,1,1,2,2,1,1,1,1,565,1,1,"MIX2",1,166,NA,NA,NA,NA,NA,NA
"422",3,3,14,2,1,2,0,0,1,1,0,625,6,1,"MIX2",3,167,NA,NA,NA,NA,NA,NA
"423",3,3,15,2,1,8,0,0,1,1,0,998,172,0,"MIX2",2,4,1,3,168,169,170,171
"424",3,3,16,1,1,2,1,2,2,1,0,609,173,0,"MIX2",4,173,NA,NA,NA,NA,NA,NA
"425",3,3,17,1,1,8,1,8,2,1,0,1017,175,0,"MIX2",1,2,4,3,174,175,176,177
"426",3,3,18,2,1,8,0,0,2,1,1,1727,1,1,"MIX2",3,4,2,1,178,179,180,181
"427",3,3,19,2,1,2,0,0,2,1,1,877,1,1,"MIX2",3,182,NA,NA,NA,NA,NA,NA
"428",3,3,20,2,1,2,0,0,1,1,0,716,184,0,"MIX2",4,183,NA,NA,NA,NA,NA,NA
"429",3,3,21,1,1,4,1,4,2,1,0,1509,4,1,"MIX2",2,4,185,186,NA,NA,NA,NA
"430",3,3,22,2,1,4,0,0,2,1,1,912,3,1,"MIX2",4,1,187,188,NA,NA,NA,NA
"431",3,3,23,1,1,8,2,7,2,1,0,1052,189,0,"MIX2",2,1,3,4,189,190,191,192
"432",3,3,24,2,1,4,0,0,1,1,0,809,195,0,"MIX2",1,3,193,194,NA,NA,NA,NA
"433",3,4,1,2,1,2,0,0,2,1,1,568,197,0,"MIX2",3,196,NA,NA,NA,NA,NA,NA
"434",3,4,2,2,1,8,0,0,1,1,0,882,7,1,"MIX2",4,1,3,2,198,199,200,201
"435",3,4,3,1,1,4,3,2,1,1,1,1126,3,1,"MIX2",4,3,202,203,NA,NA,NA,NA
"436",3,4,4,2,1,4,0,0,1,1,0,1776,5,1,"MIX2",3,4,204,205,NA,NA,NA,NA
"437",3,4,5,1,1,4,4,1,1,1,1,1167,207,0,"MIX2",2,1,206,207,NA,NA,NA,NA
"438",3,4,6,1,1,8,8,1,2,1,0,593,3,1,"MIX2",4,2,3,1,208,209,210,211
"439",3,4,7,2,1,2,0,0,2,1,1,909,1,1,"MIX2",1,212,NA,NA,NA,NA,NA,NA
"440",3,4,8,2,1,8,0,0,1,1,0,776,8,1,"MIX2",2,4,1,3,213,214,215,216
"441",3,4,9,1,1,8,8,1,2,1,0,1066,3,1,"MIX2",1,4,3,2,217,218,219,220
"442",3,4,10,2,1,8,0,0,2,1,1,895,2,1,"MIX2",4,3,2,1,221,222,223,224
"443",3,4,11,2,1,8,0,0,2,0,0,1163,8,1,"MIX2",4,2,3,1,225,226,227,228
"444",3,4,12,2,1,8,0,0,1,1,0,1468,8,1,"MIX2",1,3,2,4,229,230,231,232
"445",3,4,13,2,1,2,0,0,2,1,1,741,3,1,"MIX2",2,233,NA,NA,NA,NA,NA,NA
"446",3,4,14,1,1,4,2,3,2,1,0,991,234,0,"MIX2",2,4,234,235,NA,NA,NA,NA
"447",3,4,15,2,1,2,0,0,1,1,0,681,237,0,"MIX2",2,236,NA,NA,NA,NA,NA,NA
"448",3,4,16,2,1,2,0,0,2,1,1,609,3,1,"MIX2",3,238,NA,NA,NA,NA,NA,NA
"449",3,4,17,2,1,8,0,0,2,1,1,808,243,0,"MIX2",2,4,1,3,239,240,241,242
"450",3,4,18,2,1,4,0,0,1,1,0,657,246,0,"MIX2",2,4,244,245,NA,NA,NA,NA
"451",3,4,19,2,1,2,0,0,1,1,0,873,248,0,"MIX2",3,247,NA,NA,NA,NA,NA,NA
"452",3,4,20,2,1,2,0,0,2,1,1,489,3,1,"MIX2",1,249,NA,NA,NA,NA,NA,NA
"453",3,4,21,1,1,4,3,2,2,1,0,2046,250,0,"MIX2",3,4,250,251,NA,NA,NA,NA
"454",3,4,22,2,1,8,0,0,1,1,0,877,7,1,"MIX2",3,4,2,1,252,253,254,255
"455",3,4,23,2,1,2,0,0,1,1,0,2443,257,0,"MIX2",4,256,NA,NA,NA,NA,NA,NA
"456",3,4,24,2,1,4,0,0,2,1,1,656,2,1,"MIX2",1,3,258,259,NA,NA,NA,NA
"457",3,5,1,1,1,2,1,2,2,1,0,1005,2,1,"MIX2",2,260,NA,NA,NA,NA,NA,NA
"458",3,5,2,2,1,2,0,0,2,1,1,950,262,0,"MIX2",4,261,NA,NA,NA,NA,NA,NA
"459",3,5,3,2,1,8,0,0,1,1,0,769,5,1,"MIX2",2,3,4,1,263,264,265,266
"460",3,5,4,2,1,4,0,0,2,1,1,537,269,0,"MIX2",2,1,267,268,NA,NA,NA,NA
"461",3,5,5,2,1,2,0,0,2,1,1,662,271,0,"MIX2",3,270,NA,NA,NA,NA,NA,NA
"462",3,5,6,1,1,4,2,3,1,1,1,1443,2,1,"MIX2",3,2,272,273,NA,NA,NA,NA
"463",3,5,7,2,1,4,0,0,2,1,1,1026,1,1,"MIX2",2,4,274,275,NA,NA,NA,NA
"464",3,5,8,1,1,8,6,3,2,1,0,1271,3,1,"MIX2",1,4,3,2,276,277,278,279
"465",3,5,9,1,1,8,2,7,2,1,0,1046,281,0,"MIX2",2,4,3,1,280,281,282,283
"466",3,5,10,1,1,2,2,1,2,1,0,879,3,1,"MIX2",3,284,NA,NA,NA,NA,NA,NA
"467",3,5,11,2,1,8,0,0,2,1,1,1148,3,1,"MIX2",3,2,1,4,285,286,287,288
"468",3,5,12,1,1,8,6,3,1,0,0,1358,1,1,"MIX2",3,4,1,2,289,290,291,292
"469",3,5,13,1,1,2,1,2,2,1,0,843,293,0,"MIX2",2,293,NA,NA,NA,NA,NA,NA
"470",3,5,14,2,1,8,0,0,1,1,0,1096,5,1,"MIX2",1,3,2,4,294,295,296,297
"471",3,5,15,2,1,8,0,0,2,1,1,891,2,1,"MIX2",3,4,2,1,298,299,300,301
"472",3,5,16,2,1,4,0,0,1,1,0,560,8,1,"MIX2",1,4,302,303,NA,NA,NA,NA
"473",3,5,17,1,1,8,3,6,1,1,1,1095,305,0,"MIX2",2,3,4,1,304,305,306,307
"474",3,5,18,2,1,4,0,0,2,1,1,754,1,1,"MIX2",1,3,308,309,NA,NA,NA,NA
"475",3,5,19,1,1,2,2,1,2,1,0,647,310,0,"MIX2",3,310,NA,NA,NA,NA,NA,NA
"476",3,5,20,1,1,4,3,2,2,1,0,660,311,0,"MIX2",1,3,311,312,NA,NA,NA,NA
"477",3,5,21,2,1,2,0,0,1,1,0,589,314,0,"MIX2",2,313,NA,NA,NA,NA,NA,NA
"478",3,5,22,1,1,4,3,2,1,1,1,813,315,0,"MIX2",3,2,315,316,NA,NA,NA,NA
"479",3,5,23,1,1,2,2,1,2,1,0,671,317,0,"MIX2",4,317,NA,NA,NA,NA,NA,NA
"480",3,5,24,2,1,4,0,0,1,1,0,733,320,0,"MIX2",4,2,318,319,NA,NA,NA,NA
"481",3,6,1,1,1,4,1,4,1,1,1,633,321,0,"MIX2",3,4,321,322,NA,NA,NA,NA
"482",3,6,2,1,1,2,2,1,1,1,1,595,4,1,"MIX2",4,323,NA,NA,NA,NA,NA,NA
"483",3,6,3,2,1,2,0,0,1,1,0,605,7,1,"MIX2",2,324,NA,NA,NA,NA,NA,NA
"484",3,6,4,1,1,4,3,2,2,1,0,1469,1,1,"MIX2",3,1,325,326,NA,NA,NA,NA
"485",3,6,5,2,1,4,0,0,2,1,1,665,329,0,"MIX2",1,2,327,328,NA,NA,NA,NA
"486",3,6,6,1,1,2,2,1,2,1,0,513,3,1,"MIX2",3,330,NA,NA,NA,NA,NA,NA
"487",3,6,7,2,1,2,0,0,1,1,0,541,332,0,"MIX2",3,331,NA,NA,NA,NA,NA,NA
"488",3,6,8,1,1,2,2,1,2,1,0,524,1,1,"MIX2",1,333,NA,NA,NA,NA,NA,NA
"489",3,6,9,2,1,8,0,0,2,1,1,695,338,0,"MIX2",2,4,1,3,334,335,336,337
"490",3,6,10,2,1,8,0,0,2,1,1,684,343,0,"MIX2",1,2,4,3,339,340,341,342
"491",3,6,11,2,1,2,0,0,1,1,0,596,6,1,"MIX2",3,344,NA,NA,NA,NA,NA,NA
"492",3,6,12,2,1,8,0,0,2,1,1,666,349,0,"MIX2",2,1,3,4,345,346,347,348
"493",3,6,13,1,1,2,2,1,1,1,1,722,350,0,"MIX2",4,350,NA,NA,NA,NA,NA,NA
"494",3,6,14,2,1,2,0,0,2,1,1,663,4,1,"MIX2",2,351,NA,NA,NA,NA,NA,NA
"495",3,6,15,2,1,8,0,0,2,1,1,717,356,0,"MIX2",1,2,4,3,352,353,354,355
"496",3,6,16,2,1,8,0,0,2,1,1,720,361,0,"MIX2",1,2,4,3,357,358,359,360
"497",3,6,17,2,1,4,0,0,1,1,0,667,7,1,"MIX2",3,4,362,363,NA,NA,NA,NA
"498",3,6,18,1,1,4,2,3,1,0,0,3080,365,0,"MIX2",1,3,364,365,NA,NA,NA,NA
"499",3,6,19,1,1,2,1,2,2,0,1,544,366,0,"MIX2",3,366,NA,NA,NA,NA,NA,NA
"500",3,6,20,2,1,8,0,0,1,1,0,1210,371,0,"MIX2",2,1,4,3,367,368,369,370
"501",3,6,21,1,1,4,3,2,2,1,0,849,372,0,"MIX2",1,2,372,373,NA,NA,NA,NA
"502",3,6,22,2,1,2,0,0,2,1,1,579,3,1,"MIX2",4,374,NA,NA,NA,NA,NA,NA
"503",3,6,23,1,1,4,2,3,2,0,1,915,1,1,"MIX2",2,1,375,376,NA,NA,NA,NA
"504",3,6,24,2,1,8,0,0,1,1,0,974,381,0,"MIX2",3,2,1,4,377,378,379,380
"505",3,7,1,1,1,2,1,2,2,1,0,542,382,0,"MIX2",3,382,NA,NA,NA,NA,NA,NA
"506",3,7,2,2,1,4,0,0,2,1,1,624,385,0,"MIX2",4,3,383,384,NA,NA,NA,NA
"507",3,7,3,1,1,4,3,2,2,1,0,831,4,1,"MIX2",4,3,386,387,NA,NA,NA,NA
"508",3,7,4,1,1,2,1,2,1,1,1,738,388,0,"MIX2",1,388,NA,NA,NA,NA,NA,NA
"509",3,7,5,1,1,8,6,3,1,1,1,1316,3,1,"MIX2",3,4,1,2,389,390,391,392
"510",3,7,6,2,1,4,0,0,2,1,1,695,3,1,"MIX2",3,4,393,394,NA,NA,NA,NA
"511",3,7,7,1,1,2,1,2,1,1,1,2110,3,1,"MIX2",3,395,NA,NA,NA,NA,NA,NA
"512",3,7,8,2,1,4,0,0,2,1,1,608,398,0,"MIX2",3,4,396,397,NA,NA,NA,NA
"513",3,7,9,1,1,8,2,7,2,0,1,1559,2,1,"MIX2",1,4,3,2,399,400,401,402
"514",3,7,10,1,1,4,3,2,2,1,0,880,404,0,"MIX2",2,4,403,404,NA,NA,NA,NA
"515",3,7,11,2,1,2,0,0,2,1,1,799,2,1,"MIX2",3,405,NA,NA,NA,NA,NA,NA
"516",3,7,12,2,1,2,0,0,2,1,1,642,3,1,"MIX2",1,406,NA,NA,NA,NA,NA,NA
"517",3,7,13,2,1,2,0,0,2,1,1,699,2,1,"MIX2",3,407,NA,NA,NA,NA,NA,NA
"518",3,7,14,2,1,2,0,0,2,1,1,656,409,0,"MIX2",1,408,NA,NA,NA,NA,NA,NA
"519",3,7,15,1,1,4,4,1,2,1,0,1197,410,0,"MIX2",3,4,410,411,NA,NA,NA,NA
"520",3,7,16,1,1,8,4,5,2,1,0,1198,3,1,"MIX2",2,4,1,3,412,413,414,415
"521",3,7,17,1,1,2,1,2,2,1,0,705,4,1,"MIX2",4,416,NA,NA,NA,NA,NA,NA
"522",3,7,18,1,1,8,1,8,2,1,0,998,420,0,"MIX2",3,4,2,1,417,418,419,420
"523",3,7,19,1,1,2,2,1,1,1,1,561,421,0,"MIX2",3,421,NA,NA,NA,NA,NA,NA
"524",3,7,20,2,1,4,0,0,2,1,1,739,4,1,"MIX2",2,4,422,423,NA,NA,NA,NA
"525",3,7,21,1,1,8,5,4,1,1,1,2277,4,1,"MIX2",4,3,2,1,424,425,426,427
"526",3,7,22,2,1,2,0,0,2,1,1,572,4,1,"MIX2",2,428,NA,NA,NA,NA,NA,NA
"527",3,7,23,2,1,4,0,0,1,1,0,3934,6,1,"MIX2",4,1,429,430,NA,NA,NA,NA
"528",3,7,24,1,1,4,3,2,2,1,0,1176,431,0,"MIX2",4,1,431,432,NA,NA,NA,NA
"529",3,8,1,1,1,4,3,2,1,0,0,1576,4,1,"MIX2",4,3,433,434,NA,NA,NA,NA
"530",3,8,2,1,1,4,1,4,2,0,1,1713,2,1,"MIX2",1,2,435,436,NA,NA,NA,NA
"531",3,8,3,2,1,4,0,0,1,1,0,707,439,0,"MIX2",3,1,437,438,NA,NA,NA,NA
"532",3,8,4,1,1,2,2,1,1,1,1,699,2,1,"MIX2",2,440,NA,NA,NA,NA,NA,NA
"533",3,8,5,1,1,2,2,1,1,1,1,578,441,0,"MIX2",1,441,NA,NA,NA,NA,NA,NA
"534",3,8,6,2,1,2,0,0,1,1,0,861,6,1,"MIX2",1,442,NA,NA,NA,NA,NA,NA
"535",3,8,7,1,1,4,2,3,1,1,1,1043,444,0,"MIX2",1,4,443,444,NA,NA,NA,NA
"536",3,8,8,2,1,2,0,0,1,1,0,589,6,1,"MIX2",1,445,NA,NA,NA,NA,NA,NA
"537",3,8,9,1,1,2,1,2,2,1,0,888,446,0,"MIX2",4,446,NA,NA,NA,NA,NA,NA
"538",3,8,10,2,1,8,0,0,2,1,1,915,451,0,"MIX2",3,4,2,1,447,448,449,450
"539",3,8,11,2,1,2,0,0,1,1,0,640,7,1,"MIX2",2,452,NA,NA,NA,NA,NA,NA
"540",3,8,12,1,1,2,1,2,2,1,0,970,453,0,"MIX2",4,453,NA,NA,NA,NA,NA,NA
"541",3,8,13,1,1,2,2,1,1,1,1,567,454,0,"MIX2",2,454,NA,NA,NA,NA,NA,NA
"542",3,8,14,1,1,2,2,1,1,1,1,995,455,0,"MIX2",1,455,NA,NA,NA,NA,NA,NA
"543",3,8,15,2,1,2,0,0,2,1,1,573,457,0,"MIX2",2,456,NA,NA,NA,NA,NA,NA
"544",3,8,16,1,1,4,3,2,1,1,1,974,459,0,"MIX2",4,1,458,459,NA,NA,NA,NA
"545",3,8,17,2,1,8,0,0,1,1,0,693,464,0,"MIX2",3,4,1,2,460,461,462,463
"546",3,8,18,1,1,8,8,1,1,1,1,1065,2,1,"MIX2",4,2,1,3,465,466,467,468
"547",3,8,19,1,1,2,2,1,1,1,1,674,469,0,"MIX2",1,469,NA,NA,NA,NA,NA,NA
"548",3,8,20,1,1,8,1,8,2,1,0,984,472,0,"MIX2",4,2,1,3,470,471,472,473
"549",3,8,21,2,1,2,0,0,1,1,0,595,6,1,"MIX2",3,474,NA,NA,NA,NA,NA,NA
"550",3,8,22,1,1,8,3,6,2,1,0,2076,4,1,"MIX2",4,1,2,3,475,476,477,478
"551",3,8,23,2,1,4,0,0,1,1,0,591,481,0,"MIX2",3,1,479,480,NA,NA,NA,NA
"552",3,8,24,1,1,8,8,1,1,1,1,887,4,1,"MIX2",3,4,1,2,482,483,484,485
"553",3,9,1,2,1,8,0,0,2,1,1,1752,490,0,"MIX2",3,2,4,1,486,487,488,489
"554",3,9,2,2,1,8,0,0,1,1,0,736,495,0,"MIX2",1,4,3,2,491,492,493,494
"555",3,9,3,1,1,4,1,4,2,0,1,1113,4,1,"MIX2",4,3,496,497,NA,NA,NA,NA
"556",3,9,4,1,1,8,4,5,2,1,0,1452,3,1,"MIX2",2,3,1,4,498,499,500,501
"557",3,9,5,1,1,8,7,2,1,1,1,1442,502,0,"MIX2",4,3,2,1,502,503,504,505
"558",3,9,6,2,1,2,0,0,1,1,0,779,8,1,"MIX2",4,506,NA,NA,NA,NA,NA,NA
"559",3,9,7,2,1,2,0,0,1,1,0,831,5,1,"MIX2",2,507,NA,NA,NA,NA,NA,NA
"560",3,9,8,1,1,2,2,1,1,1,1,865,4,1,"MIX2",4,508,NA,NA,NA,NA,NA,NA
"561",3,9,9,2,1,8,0,0,1,1,0,733,7,1,"MIX2",3,1,4,2,509,510,511,512
"562",3,9,10,1,1,4,1,4,1,1,1,1064,513,0,"MIX2",1,4,513,514,NA,NA,NA,NA
"563",3,9,11,1,1,4,3,2,2,1,0,900,515,0,"MIX2",2,1,515,516,NA,NA,NA,NA
"564",3,9,12,2,1,2,0,0,1,1,0,3764,518,0,"MIX2",1,517,NA,NA,NA,NA,NA,NA
"565",3,9,13,1,1,2,2,1,1,1,1,784,519,0,"MIX2",1,519,NA,NA,NA,NA,NA,NA
"566",3,9,14,2,1,4,0,0,2,1,1,728,4,1,"MIX2",4,3,520,521,NA,NA,NA,NA
"567",3,9,15,1,1,4,2,3,1,1,1,1251,522,0,"MIX2",2,4,522,523,NA,NA,NA,NA
"568",3,9,16,2,1,2,0,0,2,1,1,707,525,0,"MIX2",2,524,NA,NA,NA,NA,NA,NA
"569",3,9,17,2,1,4,0,0,1,1,0,815,8,1,"MIX2",1,2,526,527,NA,NA,NA,NA
"570",3,9,18,1,1,4,1,4,2,1,0,1559,528,0,"MIX2",3,1,528,529,NA,NA,NA,NA
"571",3,9,19,1,1,2,2,1,2,1,0,1372,3,1,"MIX2",3,530,NA,NA,NA,NA,NA,NA
"572",3,9,20,1,1,2,2,1,2,1,0,664,531,0,"MIX2",1,531,NA,NA,NA,NA,NA,NA
"573",3,9,21,2,1,4,0,0,1,1,0,564,6,1,"MIX2",3,4,532,533,NA,NA,NA,NA
"574",3,9,22,2,1,8,0,0,2,1,1,1146,1,1,"MIX2",4,2,1,3,534,535,536,537
"575",3,9,23,1,1,2,2,1,1,1,1,831,538,0,"MIX2",3,538,NA,NA,NA,NA,NA,NA
"576",3,9,24,2,1,4,0,0,2,1,1,803,541,0,"MIX2",4,2,539,540,NA,NA,NA,NA
"577",4,2,1,1,1,8,2,7,1,1,1,922,74,0,"MIX2",3,2,4,1,72,73,74,75
"578",4,2,2,1,1,4,3,2,1,1,1,1286,3,1,"MIX2",3,4,76,77,NA,NA,NA,NA
"579",4,2,3,1,1,4,1,4,1,1,1,1378,3,1,"MIX2",2,3,78,79,NA,NA,NA,NA
"580",4,2,4,2,1,2,0,0,2,1,1,830,3,1,"MIX2",4,80,NA,NA,NA,NA,NA,NA
"581",4,2,5,1,1,2,2,1,2,1,0,944,81,0,"MIX2",3,81,NA,NA,NA,NA,NA,NA
"582",4,2,6,1,1,2,2,1,1,1,1,1038,1,1,"MIX2",1,82,NA,NA,NA,NA,NA,NA
"583",4,2,7,1,1,8,6,3,1,0,0,1478,3,1,"MIX2",1,2,4,3,83,84,85,86
"584",4,2,8,2,1,8,0,0,1,1,0,875,91,0,"MIX2",4,1,3,2,87,88,89,90
"585",4,2,9,2,1,4,0,0,1,1,0,839,94,0,"MIX2",3,2,92,93,NA,NA,NA,NA
"586",4,2,10,1,1,4,4,1,2,1,0,1094,96,0,"MIX2",3,2,95,96,NA,NA,NA,NA
"587",4,2,11,1,1,8,2,7,2,1,0,794,2,1,"MIX2",2,3,1,4,97,98,99,100
"588",4,2,12,1,1,2,2,1,2,1,0,1678,101,0,"MIX2",1,101,NA,NA,NA,NA,NA,NA
"589",4,2,13,2,1,4,0,0,1,0,1,1196,3,1,"MIX2",2,3,102,103,NA,NA,NA,NA
"590",4,2,14,1,1,2,2,1,1,1,1,592,1,1,"MIX2",1,104,NA,NA,NA,NA,NA,NA
"591",4,2,15,1,1,8,1,8,1,1,1,1593,4,1,"MIX2",2,4,3,1,105,106,107,108
"592",4,2,16,2,1,4,0,0,1,1,0,840,111,0,"MIX2",1,3,109,110,NA,NA,NA,NA
"593",4,2,17,1,1,2,1,2,1,1,1,771,112,0,"MIX2",1,112,NA,NA,NA,NA,NA,NA
"594",4,2,18,1,1,8,1,8,2,0,1,1541,114,0,"MIX2",3,2,4,1,113,114,115,116
"595",4,2,19,1,1,2,1,2,2,1,0,1362,1,1,"MIX2",1,117,NA,NA,NA,NA,NA,NA
"596",4,2,20,1,1,8,8,1,2,1,0,854,120,0,"MIX2",3,1,4,2,118,119,120,121
"597",4,2,21,2,1,2,0,0,1,1,0,719,6,1,"MIX2",3,122,NA,NA,NA,NA,NA,NA
"598",4,2,22,2,1,2,0,0,1,1,0,613,124,0,"MIX2",3,123,NA,NA,NA,NA,NA,NA
"599",4,2,23,1,1,8,4,5,1,0,0,695,128,0,"MIX2",1,4,2,3,125,126,127,128
"600",4,2,24,1,1,4,2,3,2,1,0,821,129,0,"MIX2",2,1,129,130,NA,NA,NA,NA
"601",4,3,1,2,1,4,0,0,2,1,1,823,4,1,"MIX2",3,2,131,132,NA,NA,NA,NA
"602",4,3,2,2,1,8,0,0,2,1,1,712,137,0,"MIX2",3,2,1,4,133,134,135,136
"603",4,3,3,1,1,8,6,3,2,1,0,796,4,1,"MIX2",1,3,4,2,138,139,140,141
"604",4,3,4,1,1,2,2,1,2,1,0,536,142,0,"MIX2",2,142,NA,NA,NA,NA,NA,NA
"605",4,3,5,2,1,4,0,0,1,1,0,682,6,1,"MIX2",3,1,143,144,NA,NA,NA,NA
"606",4,3,6,2,1,2,0,0,2,1,1,762,2,1,"MIX2",3,145,NA,NA,NA,NA,NA,NA
"607",4,3,7,2,1,4,0,0,2,1,1,598,148,0,"MIX2",2,3,146,147,NA,NA,NA,NA
"608",4,3,8,2,1,4,0,0,2,1,1,829,1,1,"MIX2",2,1,149,150,NA,NA,NA,NA
"609",4,3,9,2,1,8,0,0,2,1,1,699,155,0,"MIX2",3,2,1,4,151,152,153,154
"610",4,3,10,1,1,2,2,1,1,1,1,794,2,1,"MIX2",2,156,NA,NA,NA,NA,NA,NA
"611",4,3,11,2,1,4,0,0,1,1,0,730,8,1,"MIX2",1,4,157,158,NA,NA,NA,NA
"612",4,3,12,2,1,2,0,0,2,1,1,969,1,1,"MIX2",1,159,NA,NA,NA,NA,NA,NA
"613",4,3,13,2,1,8,0,0,1,1,0,688,164,0,"MIX2",1,4,2,3,160,161,162,163
"614",4,3,14,2,1,8,0,0,1,1,0,789,7,1,"MIX2",3,4,2,1,165,166,167,168
"615",4,3,15,2,1,2,0,0,2,1,1,905,4,1,"MIX2",4,169,NA,NA,NA,NA,NA,NA
"616",4,3,16,1,1,8,5,4,2,1,0,1269,173,0,"MIX2",3,2,1,4,170,171,172,173
"617",4,3,17,2,1,8,0,0,2,1,1,684,178,0,"MIX2",3,1,2,4,174,175,176,177
"618",4,3,18,1,1,2,2,1,1,1,1,1595,1,1,"MIX2",1,179,NA,NA,NA,NA,NA,NA
"619",4,3,19,1,1,4,3,2,2,1,0,685,181,0,"MIX2",4,2,180,181,NA,NA,NA,NA
"620",4,3,20,1,1,4,3,2,2,0,1,963,183,0,"MIX2",2,1,182,183,NA,NA,NA,NA
"621",4,3,21,2,1,2,0,0,1,1,0,647,185,0,"MIX2",1,184,NA,NA,NA,NA,NA,NA
"622",4,3,22,1,1,8,3,6,1,1,1,800,4,1,"MIX2",4,3,2,1,186,187,188,189
"623",4,3,23,1,1,8,5,4,1,1,1,801,3,1,"MIX2",3,4,2,1,190,191,192,193
"624",4,3,24,2,1,8,0,0,1,1,0,682,198,0,"MIX2",3,2,4,1,194,195,196,197
"625",4,4,1,2,1,4,0,0,1,1,0,669,7,1,"MIX2",4,1,199,200,NA,NA,NA,NA
"626",4,4,2,2,1,8,0,0,1,1,0,578,7,1,"MIX2",3,1,2,4,201,202,203,204
"627",4,4,3,1,1,8,5,4,2,0,1,643,206,0,"MIX2",2,3,4,1,205,206,207,208
"628",4,4,4,1,1,8,7,2,2,0,1,1787,3,1,"MIX2",1,2,4,3,209,210,211,212
"629",4,4,5,2,1,2,0,0,1,1,0,622,214,0,"MIX2",4,213,NA,NA,NA,NA,NA,NA
"630",4,4,6,1,1,8,1,8,2,0,1,741,3,1,"MIX2",2,3,4,1,215,216,217,218
"631",4,4,7,2,1,2,0,0,2,1,1,683,3,1,"MIX2",3,219,NA,NA,NA,NA,NA,NA
"632",4,4,8,1,1,8,5,4,2,0,1,2039,3,1,"MIX2",1,3,4,2,220,221,222,223
"633",4,4,9,1,1,2,2,1,1,1,1,690,224,0,"MIX2",2,224,NA,NA,NA,NA,NA,NA
"634",4,4,10,1,1,8,2,7,2,1,0,1112,225,0,"MIX2",3,2,4,1,225,226,227,228
"635",4,4,11,1,1,4,3,2,2,1,0,731,229,0,"MIX2",1,3,229,230,NA,NA,NA,NA
"636",4,4,12,2,1,2,0,0,2,1,1,905,4,1,"MIX2",4,231,NA,NA,NA,NA,NA,NA
"637",4,4,13,2,1,8,0,0,2,1,1,966,3,1,"MIX2",3,4,2,1,232,233,234,235
"638",4,4,14,2,1,4,0,0,2,1,1,664,3,1,"MIX2",3,4,236,237,NA,NA,NA,NA
"639",4,4,15,2,1,4,0,0,2,1,1,710,4,1,"MIX2",2,4,238,239,NA,NA,NA,NA
"640",4,4,16,2,1,2,0,0,2,1,1,692,1,1,"MIX2",1,240,NA,NA,NA,NA,NA,NA
"641",4,4,17,2,1,2,0,0,2,1,1,669,242,0,"MIX2",3,241,NA,NA,NA,NA,NA,NA
"642",4,4,18,1,1,4,1,4,2,1,0,1193,4,1,"MIX2",1,4,243,244,NA,NA,NA,NA
"643",4,4,19,1,1,8,7,2,1,1,1,1028,247,0,"MIX2",4,1,3,2,245,246,247,248
"644",4,4,20,1,1,8,1,8,2,1,0,723,252,0,"MIX2",2,4,3,1,249,250,251,252
"645",4,4,21,2,1,4,0,0,1,1,0,670,255,0,"MIX2",2,3,253,254,NA,NA,NA,NA
"646",4,4,22,1,1,2,2,1,1,1,1,663,3,1,"MIX2",3,256,NA,NA,NA,NA,NA,NA
"647",4,4,23,1,1,8,5,4,1,1,1,687,2,1,"MIX2",1,4,3,2,257,258,259,260
"648",4,4,24,2,1,4,0,0,1,1,0,875,6,1,"MIX2",2,4,261,262,NA,NA,NA,NA
"649",4,5,1,2,1,2,0,0,1,1,0,669,264,0,"MIX2",1,263,NA,NA,NA,NA,NA,NA
"650",4,5,2,1,1,4,3,2,2,1,0,739,265,0,"MIX2",1,4,265,266,NA,NA,NA,NA
"651",4,5,3,1,1,4,4,1,2,1,0,533,1,1,"MIX2",1,3,267,268,NA,NA,NA,NA
"652",4,5,4,1,1,8,5,4,2,0,1,816,1,1,"MIX2",1,2,3,4,269,270,271,272
"653",4,5,5,1,1,8,3,6,2,1,0,850,274,0,"MIX2",2,3,4,1,273,274,275,276
"654",4,5,6,1,1,2,1,2,1,1,1,668,277,0,"MIX2",3,277,NA,NA,NA,NA,NA,NA
"655",4,5,7,2,1,8,0,0,2,1,1,698,282,0,"MIX2",4,2,3,1,278,279,280,281
"656",4,5,8,2,1,2,0,0,2,1,1,3001,284,0,"MIX2",1,283,NA,NA,NA,NA,NA,NA
"657",4,5,9,1,1,8,3,6,1,1,1,1194,286,0,"MIX2",3,4,2,1,285,286,287,288
"658",4,5,10,1,1,8,1,8,2,0,1,932,289,0,"MIX2",2,1,3,4,289,290,291,292
"659",4,5,11,2,1,2,0,0,2,1,1,578,294,0,"MIX2",4,293,NA,NA,NA,NA,NA,NA
"660",4,5,12,1,1,4,1,4,1,0,0,1036,3,1,"MIX2",3,4,295,296,NA,NA,NA,NA
"661",4,5,13,2,1,2,0,0,2,1,1,494,298,0,"MIX2",2,297,NA,NA,NA,NA,NA,NA
"662",4,5,14,2,1,8,0,0,1,1,0,1369,303,0,"MIX2",3,4,1,2,299,300,301,302
"663",4,5,15,2,1,4,0,0,2,1,1,921,2,1,"MIX2",2,4,304,305,NA,NA,NA,NA
"664",4,5,16,2,1,4,0,0,2,1,1,604,308,0,"MIX2",3,2,306,307,NA,NA,NA,NA
"665",4,5,17,2,1,8,0,0,2,1,1,779,313,0,"MIX2",2,3,4,1,309,310,311,312
"666",4,5,18,2,1,8,0,0,2,1,1,933,4,1,"MIX2",3,1,2,4,314,315,316,317
"667",4,5,19,1,1,8,7,2,1,1,1,687,2,1,"MIX2",3,2,1,4,318,319,320,321
"668",4,5,20,2,1,8,0,0,2,0,0,845,8,1,"MIX2",2,1,4,3,322,323,324,325
"669",4,5,21,1,1,2,1,2,2,1,0,558,326,0,"MIX2",3,326,NA,NA,NA,NA,NA,NA
"670",4,5,22,1,1,2,2,1,1,1,1,1027,1,1,"MIX2",1,327,NA,NA,NA,NA,NA,NA
"671",4,5,23,2,1,2,0,0,1,1,0,571,329,0,"MIX2",4,328,NA,NA,NA,NA,NA,NA
"672",4,5,24,2,1,8,0,0,1,1,0,1534,334,0,"MIX2",3,1,2,4,330,331,332,333
"673",4,6,1,2,1,4,0,0,1,1,0,574,337,0,"MIX2",3,1,335,336,NA,NA,NA,NA
"674",4,6,2,1,1,4,2,3,2,1,0,686,339,0,"MIX2",2,3,338,339,NA,NA,NA,NA
"675",4,6,3,1,1,8,7,2,2,1,0,660,340,0,"MIX2",4,2,1,3,340,341,342,343
"676",4,6,4,1,1,8,1,8,1,1,1,746,347,0,"MIX2",1,2,3,4,344,345,346,347
"677",4,6,5,2,1,2,0,0,2,1,1,649,1,1,"MIX2",3,348,NA,NA,NA,NA,NA,NA
"678",4,6,6,1,1,8,5,4,2,1,0,599,351,0,"MIX2",3,2,4,1,349,350,351,352
"679",4,6,7,2,1,2,0,0,2,1,1,482,354,0,"MIX2",4,353,NA,NA,NA,NA,NA,NA
"680",4,6,8,1,1,2,1,2,2,1,0,522,4,1,"MIX2",4,355,NA,NA,NA,NA,NA,NA
"681",4,6,9,2,1,4,0,0,1,1,0,638,358,0,"MIX2",4,3,356,357,NA,NA,NA,NA
"682",4,6,10,1,1,4,3,2,2,1,0,532,359,0,"MIX2",3,2,359,360,NA,NA,NA,NA
"683",4,6,11,2,1,4,0,0,2,1,1,797,363,0,"MIX2",2,3,361,362,NA,NA,NA,NA
"684",4,6,12,1,1,4,2,3,2,1,0,462,364,0,"MIX2",2,3,364,365,NA,NA,NA,NA
"685",4,6,13,1,1,8,4,5,1,0,0,1055,1,1,"MIX2",3,2,1,4,366,367,368,369
"686",4,6,14,2,1,2,0,0,1,1,0,583,371,0,"MIX2",3,370,NA,NA,NA,NA,NA,NA
"687",4,6,15,2,1,4,0,0,2,1,1,1070,3,1,"MIX2",1,4,372,373,NA,NA,NA,NA
"688",4,6,16,2,1,8,0,0,1,1,0,621,378,0,"MIX2",1,3,2,4,374,375,376,377
"689",4,6,17,2,1,4,0,0,2,1,1,741,381,0,"MIX2",2,1,379,380,NA,NA,NA,NA
"690",4,6,18,2,1,4,0,0,2,1,1,583,1,1,"MIX2",2,4,382,383,NA,NA,NA,NA
"691",4,6,19,2,1,2,0,0,1,1,0,571,8,1,"MIX2",3,384,NA,NA,NA,NA,NA,NA
"692",4,6,20,2,1,4,0,0,1,1,0,579,387,0,"MIX2",1,2,385,386,NA,NA,NA,NA
"693",4,6,21,1,1,2,2,1,1,0,0,1152,2,1,"MIX2",2,388,NA,NA,NA,NA,NA,NA
"694",4,6,22,2,1,8,0,0,2,1,1,683,393,0,"MIX2",3,1,4,2,389,390,391,392
"695",4,6,23,2,1,8,0,0,2,1,1,776,398,0,"MIX2",1,3,4,2,394,395,396,397
"696",4,6,24,2,1,8,0,0,1,1,0,699,8,1,"MIX2",2,3,1,4,399,400,401,402
"697",4,7,1,1,1,8,4,5,1,1,1,834,406,0,"MIX2",4,1,2,3,403,404,405,406
"698",4,7,2,2,1,4,0,0,2,1,1,673,2,1,"MIX2",1,4,407,408,NA,NA,NA,NA
"699",4,7,3,2,1,2,0,0,1,1,0,1313,6,1,"MIX2",4,409,NA,NA,NA,NA,NA,NA
"700",4,7,4,2,1,4,0,0,2,1,1,589,1,1,"MIX2",4,2,410,411,NA,NA,NA,NA
"701",4,7,5,2,1,8,0,0,1,0,1,903,4,1,"MIX2",3,2,4,1,412,413,414,415
"702",4,7,6,2,1,2,0,0,2,1,1,509,417,0,"MIX2",4,416,NA,NA,NA,NA,NA,NA
"703",4,7,7,2,1,4,0,0,1,1,0,744,420,0,"MIX2",3,1,418,419,NA,NA,NA,NA
"704",4,7,8,1,1,4,1,4,1,1,1,802,422,0,"MIX2",1,4,421,422,NA,NA,NA,NA
"705",4,7,9,2,1,2,0,0,1,1,0,542,7,1,"MIX2",2,423,NA,NA,NA,NA,NA,NA
"706",4,7,10,1,1,4,2,3,1,0,0,832,2,1,"MIX2",4,2,424,425,NA,NA,NA,NA
"707",4,7,11,2,1,2,0,0,1,1,0,779,6,1,"MIX2",3,426,NA,NA,NA,NA,NA,NA
"708",4,7,12,2,1,2,0,0,2,1,1,504,428,0,"MIX2",1,427,NA,NA,NA,NA,NA,NA
"709",4,7,13,1,1,4,4,1,1,1,1,644,430,0,"MIX2",4,3,429,430,NA,NA,NA,NA
"710",4,7,14,1,1,8,4,5,2,1,0,955,4,1,"MIX2",4,1,2,3,431,432,433,434
"711",4,7,15,2,1,8,0,0,1,1,0,582,439,0,"MIX2",1,2,3,4,435,436,437,438
"712",4,7,16,1,1,2,2,1,2,0,1,794,2,1,"MIX2",2,440,NA,NA,NA,NA,NA,NA
"713",4,7,17,1,1,2,1,2,2,1,0,623,441,0,"MIX2",2,441,NA,NA,NA,NA,NA,NA
"714",4,7,18,1,1,8,4,5,2,0,1,894,3,1,"MIX2",2,1,3,4,442,443,444,445
"715",4,7,19,2,1,8,0,0,2,0,0,885,5,1,"MIX2",4,1,3,2,446,447,448,449
"716",4,7,20,2,1,2,0,0,1,1,0,524,451,0,"MIX2",1,450,NA,NA,NA,NA,NA,NA
"717",4,7,21,1,1,2,2,1,1,1,1,691,1,1,"MIX2",1,452,NA,NA,NA,NA,NA,NA
"718",4,7,22,2,1,8,0,0,1,1,0,608,457,0,"MIX2",3,4,2,1,453,454,455,456
"719",4,7,23,1,1,4,4,1,1,1,1,616,1,1,"MIX2",1,3,458,459,NA,NA,NA,NA
"720",4,7,24,1,1,4,3,2,2,1,0,686,460,0,"MIX2",3,4,460,461,NA,NA,NA,NA
"721",4,8,1,2,1,4,0,0,2,1,1,595,1,1,"MIX2",2,3,462,463,NA,NA,NA,NA
"722",4,8,2,2,1,4,0,0,2,1,1,468,3,1,"MIX2",1,4,464,465,NA,NA,NA,NA
"723",4,8,3,2,1,2,0,0,1,1,0,467,467,0,"MIX2",2,466,NA,NA,NA,NA,NA,NA
"724",4,8,4,1,1,8,1,8,2,1,0,729,469,0,"MIX2",4,3,2,1,468,469,470,471
"725",4,8,5,1,1,4,1,4,1,1,1,1221,472,0,"MIX2",2,1,472,473,NA,NA,NA,NA
"726",4,8,6,1,1,2,2,1,1,1,1,608,3,1,"MIX2",3,474,NA,NA,NA,NA,NA,NA
"727",4,8,7,1,1,8,1,8,1,1,1,715,478,0,"MIX2",1,4,3,2,475,476,477,478
"728",4,8,8,1,1,4,3,2,1,1,1,422,1,1,"MIX2",4,1,479,480,NA,NA,NA,NA
"729",4,8,9,1,1,8,4,5,1,1,1,799,481,0,"MIX2",4,1,2,3,481,482,483,484
"730",4,8,10,1,1,8,8,1,2,1,0,802,488,0,"MIX2",1,3,4,2,485,486,487,488
"731",4,8,11,1,1,2,1,2,2,1,0,796,2,1,"MIX2",2,489,NA,NA,NA,NA,NA,NA
"732",4,8,12,2,1,8,0,0,2,1,1,1534,4,1,"MIX2",1,4,2,3,490,491,492,493
"733",4,8,13,1,1,4,1,4,1,1,1,466,3,1,"MIX2",3,4,494,495,NA,NA,NA,NA
"734",4,8,14,2,1,2,0,0,1,1,0,472,497,0,"MIX2",2,496,NA,NA,NA,NA,NA,NA
"735",4,8,15,2,1,2,0,0,2,1,1,577,1,1,"MIX2",1,498,NA,NA,NA,NA,NA,NA
"736",4,8,16,1,1,8,4,5,2,0,1,635,501,0,"MIX2",2,1,3,4,499,500,501,502
"737",4,8,17,1,1,2,1,2,1,1,1,445,503,0,"MIX2",2,503,NA,NA,NA,NA,NA,NA
"738",4,8,18,1,1,2,1,2,2,0,1,719,3,1,"MIX2",3,504,NA,NA,NA,NA,NA,NA
"739",4,8,19,1,1,2,2,1,1,1,1,445,505,0,"MIX2",3,505,NA,NA,NA,NA,NA,NA
"740",4,8,20,1,1,4,1,4,1,1,1,781,3,1,"MIX2",2,3,506,507,NA,NA,NA,NA
"741",4,8,21,2,1,4,0,0,1,1,0,742,510,0,"MIX2",2,3,508,509,NA,NA,NA,NA
"742",4,8,22,2,1,4,0,0,1,1,0,632,513,0,"MIX2",2,1,511,512,NA,NA,NA,NA
"743",4,8,23,1,1,2,2,1,2,1,0,561,514,0,"MIX2",4,514,NA,NA,NA,NA,NA,NA
"744",4,8,24,2,1,2,0,0,1,1,0,518,516,0,"MIX2",3,515,NA,NA,NA,NA,NA,NA
"745",4,9,1,2,1,2,0,0,2,1,1,772,518,0,"MIX2",4,517,NA,NA,NA,NA,NA,NA
"746",4,9,2,2,1,8,0,0,1,1,0,509,523,0,"MIX2",4,3,1,2,519,520,521,522
"747",4,9,3,2,1,8,0,0,1,0,1,634,4,1,"MIX2",1,3,2,4,524,525,526,527
"748",4,9,4,1,1,2,1,2,2,0,1,540,3,1,"MIX2",3,528,NA,NA,NA,NA,NA,NA
"749",4,9,5,1,1,4,4,1,1,1,1,463,1,1,"MIX2",4,1,529,530,NA,NA,NA,NA
"750",4,9,6,1,1,4,4,1,2,1,0,678,2,1,"MIX2",4,2,531,532,NA,NA,NA,NA
"751",4,9,7,1,1,2,1,2,2,1,0,974,1,1,"MIX2",1,533,NA,NA,NA,NA,NA,NA
"752",4,9,8,2,1,8,0,0,1,0,1,645,538,0,"MIX2",1,3,2,4,534,535,536,537
"753",4,9,9,1,1,4,1,4,1,1,1,501,540,0,"MIX2",3,2,539,540,NA,NA,NA,NA
"754",4,9,10,1,1,2,1,2,2,1,0,517,541,0,"MIX2",1,541,NA,NA,NA,NA,NA,NA
"755",4,9,11,1,1,8,7,2,1,1,1,1064,542,0,"MIX2",2,1,4,3,542,543,544,545
"756",4,9,12,1,1,2,1,2,2,0,1,809,1,1,"MIX2",1,546,NA,NA,NA,NA,NA,NA
"757",4,9,13,1,1,8,1,8,2,1,0,586,548,0,"MIX2",2,1,4,3,547,548,549,550
"758",4,9,14,2,1,4,0,0,2,1,1,779,3,1,"MIX2",2,4,551,552,NA,NA,NA,NA
"759",4,9,15,1,1,2,2,1,2,1,0,606,4,1,"MIX2",4,553,NA,NA,NA,NA,NA,NA
"760",4,9,16,2,1,4,0,0,1,1,0,534,5,1,"MIX2",1,3,554,555,NA,NA,NA,NA
"761",4,9,17,2,1,2,0,0,1,1,0,578,557,0,"MIX2",1,556,NA,NA,NA,NA,NA,NA
"762",4,9,18,1,1,2,1,2,1,0,0,1111,2,1,"MIX2",2,558,NA,NA,NA,NA,NA,NA
"763",4,9,19,1,1,4,1,4,2,1,0,690,559,0,"MIX2",1,3,559,560,NA,NA,NA,NA
"764",4,9,20,1,1,8,2,7,2,1,0,599,4,1,"MIX2",1,2,3,4,561,562,563,564
"765",4,9,21,2,1,8,0,0,1,0,1,711,2,1,"MIX2",2,1,4,3,565,566,567,568
"766",4,9,22,2,1,8,0,0,2,0,0,1069,5,1,"MIX2",3,2,1,4,569,570,571,572
"767",4,9,23,1,1,8,3,6,2,1,0,497,3,1,"MIX2",4,2,3,1,573,574,575,576
"768",4,9,24,2,1,4,0,0,2,1,1,875,4,1,"MIX2",4,2,577,578,NA,NA,NA,NA
"769",5,2,1,2,1,4,0,0,2,1,1,1405,61,0,"MIX2",2,3,59,60,NA,NA,NA,NA
"770",5,2,2,1,1,8,1,8,1,1,1,1447,64,0,"MIX2",2,3,4,1,62,63,64,65
"771",5,2,3,1,1,8,6,3,2,1,0,1246,1,1,"MIX2",4,1,3,2,66,67,68,69
"772",5,2,4,1,1,2,1,2,2,1,0,1264,70,0,"MIX2",2,70,NA,NA,NA,NA,NA,NA
"773",5,2,5,2,1,4,0,0,1,1,0,997,7,1,"MIX2",2,1,71,72,NA,NA,NA,NA
"774",5,2,6,1,1,2,2,1,2,1,0,896,73,0,"MIX2",2,73,NA,NA,NA,NA,NA,NA
"775",5,2,7,1,1,8,6,3,1,0,0,3790,4,1,"MIX2",4,1,3,2,74,75,76,77
"776",5,2,8,2,1,8,0,0,2,1,1,1703,82,0,"MIX2",2,3,4,1,78,79,80,81
"777",5,2,9,1,1,2,1,2,1,0,0,1414,1,1,"MIX2",1,83,NA,NA,NA,NA,NA,NA
"778",5,2,10,2,1,8,0,0,1,0,1,2094,3,1,"MIX2",1,4,2,3,84,85,86,87
"779",5,2,11,2,1,2,0,0,2,1,1,1293,89,0,"MIX2",2,88,NA,NA,NA,NA,NA,NA
"780",5,2,12,2,1,2,0,0,2,1,1,1564,91,0,"MIX2",4,90,NA,NA,NA,NA,NA,NA
"781",5,2,13,1,1,2,2,1,1,1,1,1153,92,0,"MIX2",4,92,NA,NA,NA,NA,NA,NA
"782",5,2,14,2,1,8,0,0,1,1,0,1173,97,0,"MIX2",4,2,1,3,93,94,95,96
"783",5,2,15,1,1,2,2,1,2,1,0,1241,98,0,"MIX2",3,98,NA,NA,NA,NA,NA,NA
"784",5,2,16,2,1,2,0,0,1,0,1,1066,100,0,"MIX2",2,99,NA,NA,NA,NA,NA,NA
"785",5,2,17,2,1,4,0,0,1,1,0,1352,8,1,"MIX2",1,3,101,102,NA,NA,NA,NA
"786",5,2,18,2,1,4,0,0,1,1,0,1063,105,0,"MIX2",4,1,103,104,NA,NA,NA,NA
"787",5,2,19,1,1,4,2,3,2,1,0,1461,107,0,"MIX2",4,1,106,107,NA,NA,NA,NA
"788",5,2,20,2,1,8,0,0,2,1,1,3820,3,1,"MIX2",3,4,1,2,108,109,110,111
"789",5,2,21,1,1,2,2,1,1,1,1,1190,112,0,"MIX2",2,112,NA,NA,NA,NA,NA,NA
"790",5,2,22,1,1,8,8,1,2,1,0,999,2,1,"MIX2",4,1,2,3,113,114,115,116
"791",5,2,23,1,1,2,2,1,1,1,1,1074,2,1,"MIX2",2,117,NA,NA,NA,NA,NA,NA
"792",5,2,24,1,1,2,1,2,2,1,0,1387,118,0,"MIX2",2,118,NA,NA,NA,NA,NA,NA
"793",5,3,1,2,1,8,0,0,1,1,0,1631,123,0,"MIX2",2,3,1,4,119,120,121,122
"794",5,3,2,1,1,8,3,6,1,1,1,1360,125,0,"MIX2",2,3,4,1,124,125,126,127
"795",5,3,3,1,1,2,1,2,2,1,0,1293,128,0,"MIX2",2,128,NA,NA,NA,NA,NA,NA
"796",5,3,4,2,1,4,0,0,2,1,1,1217,131,0,"MIX2",3,2,129,130,NA,NA,NA,NA
"797",5,3,5,1,1,4,4,1,2,1,0,1032,1,1,"MIX2",2,1,132,133,NA,NA,NA,NA
"798",5,3,6,1,1,2,1,2,1,1,1,1186,134,0,"MIX2",3,134,NA,NA,NA,NA,NA,NA
"799",5,3,7,1,1,8,5,4,2,1,0,1252,138,0,"MIX2",3,2,1,4,135,136,137,138
"800",5,3,8,1,1,8,3,6,2,1,0,1266,139,0,"MIX2",3,2,4,1,139,140,141,142
"801",5,3,9,1,1,4,3,2,2,1,0,1047,143,0,"MIX2",2,1,143,144,NA,NA,NA,NA
"802",5,3,10,2,1,4,0,0,2,1,1,1972,147,0,"MIX2",2,4,145,146,NA,NA,NA,NA
"803",5,3,11,2,1,4,0,0,2,1,1,2061,4,1,"MIX2",1,2,148,149,NA,NA,NA,NA
"804",5,3,12,1,1,2,1,2,1,1,1,1085,150,0,"MIX2",1,150,NA,NA,NA,NA,NA,NA
"805",5,3,13,2,1,8,0,0,1,1,0,1267,155,0,"MIX2",4,1,2,3,151,152,153,154
"806",5,3,14,2,1,8,0,0,2,1,1,1024,160,0,"MIX2",4,3,1,2,156,157,158,159
"807",5,3,15,1,1,8,3,6,2,1,0,1302,161,0,"MIX2",4,2,1,3,161,162,163,164
"808",5,3,16,1,1,4,3,2,2,1,0,1114,3,1,"MIX2",3,4,165,166,NA,NA,NA,NA
"809",5,3,17,2,1,4,0,0,1,0,1,2165,3,1,"MIX2",4,1,167,168,NA,NA,NA,NA
"810",5,3,18,2,1,4,0,0,1,1,0,1606,7,1,"MIX2",4,1,169,170,NA,NA,NA,NA
"811",5,3,19,1,1,2,1,2,2,1,0,2665,3,1,"MIX2",3,171,NA,NA,NA,NA,NA,NA
"812",5,3,20,2,1,4,0,0,1,1,0,935,174,0,"MIX2",3,2,172,173,NA,NA,NA,NA
"813",5,3,21,1,1,4,3,2,2,1,0,1833,175,0,"MIX2",4,3,175,176,NA,NA,NA,NA
"814",5,3,22,1,1,8,8,1,1,1,1,1073,180,0,"MIX2",3,1,4,2,177,178,179,180
"815",5,3,23,1,1,4,2,3,1,1,1,1326,181,0,"MIX2",3,1,181,182,NA,NA,NA,NA
"816",5,3,24,2,1,8,0,0,2,1,1,1146,187,0,"MIX2",1,3,2,4,183,184,185,186
"817",5,4,1,1,1,2,1,2,2,1,0,1609,188,0,"MIX2",1,188,NA,NA,NA,NA,NA,NA
"818",5,4,2,2,1,8,0,0,2,1,1,1547,2,1,"MIX2",2,1,4,3,189,190,191,192
"819",5,4,3,2,1,2,0,0,2,1,1,2511,194,0,"MIX2",2,193,NA,NA,NA,NA,NA,NA
"820",5,4,4,2,1,4,0,0,2,1,1,994,197,0,"MIX2",4,3,195,196,NA,NA,NA,NA
"821",5,4,5,2,1,8,0,0,2,1,1,844,2,1,"MIX2",3,1,2,4,198,199,200,201
"822",5,4,6,2,1,2,0,0,2,1,1,1406,3,1,"MIX2",3,202,NA,NA,NA,NA,NA,NA
"823",5,4,7,1,1,4,1,4,1,0,0,1054,4,1,"MIX2",3,4,203,204,NA,NA,NA,NA
"824",5,4,8,2,1,8,0,0,1,0,1,1286,3,1,"MIX2",2,3,1,4,205,206,207,208
"825",5,4,9,2,1,4,0,0,2,1,1,1066,1,1,"MIX2",4,3,209,210,NA,NA,NA,NA
"826",5,4,10,2,1,8,0,0,1,1,0,1360,215,0,"MIX2",3,4,2,1,211,212,213,214
"827",5,4,11,1,1,2,2,1,2,1,0,925,216,0,"MIX2",1,216,NA,NA,NA,NA,NA,NA
"828",5,4,12,1,1,8,7,2,1,1,1,1001,218,0,"MIX2",2,3,4,1,217,218,219,220
"829",5,4,13,1,1,4,2,3,2,1,0,2185,222,0,"MIX2",4,3,221,222,NA,NA,NA,NA
"830",5,4,14,1,1,2,1,2,1,1,1,1253,1,1,"MIX2",1,223,NA,NA,NA,NA,NA,NA
"831",5,4,15,2,1,2,0,0,2,1,1,2837,225,0,"MIX2",2,224,NA,NA,NA,NA,NA,NA
"832",5,4,16,2,1,8,0,0,2,1,1,1286,3,1,"MIX2",3,2,4,1,226,227,228,229
"833",5,4,17,2,1,4,0,0,2,0,0,1209,8,1,"MIX2",1,2,230,231,NA,NA,NA,NA
"834",5,4,18,1,1,8,5,4,1,1,1,1882,4,1,"MIX2",3,2,1,4,232,233,234,235
"835",5,4,19,1,1,8,6,3,2,1,0,1150,3,1,"MIX2",3,1,4,2,236,237,238,239
"836",5,4,20,2,1,8,0,0,1,1,0,1441,244,0,"MIX2",3,4,1,2,240,241,242,243
"837",5,4,21,2,1,2,0,0,1,1,0,3291,5,1,"MIX2",1,245,NA,NA,NA,NA,NA,NA
"838",5,4,22,1,1,2,2,1,2,1,0,938,246,0,"MIX2",2,246,NA,NA,NA,NA,NA,NA
"839",5,4,23,2,1,2,0,0,1,1,0,1576,248,0,"MIX2",4,247,NA,NA,NA,NA,NA,NA
"840",5,4,24,1,1,8,2,7,1,1,1,1226,249,0,"MIX2",4,1,2,3,249,250,251,252
"841",5,5,1,1,1,2,2,1,1,1,1,1536,253,0,"MIX2",3,253,NA,NA,NA,NA,NA,NA
"842",5,5,2,1,1,4,4,1,1,1,1,650,2,1,"MIX2",2,4,254,255,NA,NA,NA,NA
"843",5,5,3,2,1,8,0,0,1,1,0,1250,7,1,"MIX2",2,4,1,3,256,257,258,259
"844",5,5,4,2,1,4,0,0,1,1,0,920,7,1,"MIX2",4,3,260,261,NA,NA,NA,NA
"845",5,5,5,2,1,2,0,0,1,1,0,917,5,1,"MIX2",2,262,NA,NA,NA,NA,NA,NA
"846",5,5,6,2,1,2,0,0,2,1,1,1188,4,1,"MIX2",1,263,NA,NA,NA,NA,NA,NA
"847",5,5,7,1,1,8,5,4,2,0,1,2166,1,1,"MIX2",1,4,3,2,264,265,266,267
"848",5,5,8,1,1,2,1,2,2,1,0,1251,2,1,"MIX2",2,268,NA,NA,NA,NA,NA,NA
"849",5,5,9,2,1,8,0,0,1,1,0,1041,273,0,"MIX2",1,2,3,4,269,270,271,272
"850",5,5,10,2,1,2,0,0,2,1,1,1546,275,0,"MIX2",1,274,NA,NA,NA,NA,NA,NA
"851",5,5,11,1,1,2,2,1,2,1,0,800,4,1,"MIX2",4,276,NA,NA,NA,NA,NA,NA
"852",5,5,12,2,1,2,0,0,1,1,0,673,278,0,"MIX2",4,277,NA,NA,NA,NA,NA,NA
"853",5,5,13,2,1,2,0,0,1,1,0,1177,280,0,"MIX2",1,279,NA,NA,NA,NA,NA,NA
"854",5,5,14,1,1,2,2,1,1,1,1,1070,281,0,"MIX2",4,281,NA,NA,NA,NA,NA,NA
"855",5,5,15,2,1,2,0,0,1,1,0,662,283,0,"MIX2",3,282,NA,NA,NA,NA,NA,NA
"856",5,5,16,2,1,2,0,0,1,1,0,1167,285,0,"MIX2",1,284,NA,NA,NA,NA,NA,NA
"857",5,5,17,1,1,8,7,2,1,1,1,945,286,0,"MIX2",1,3,2,4,286,287,288,289
"858",5,5,18,1,1,8,8,1,2,1,0,1165,3,1,"MIX2",3,1,4,2,290,291,292,293
"859",5,5,19,2,1,2,0,0,1,0,1,2449,295,0,"MIX2",4,294,NA,NA,NA,NA,NA,NA
"860",5,5,20,1,1,2,2,1,1,1,1,1746,3,1,"MIX2",3,296,NA,NA,NA,NA,NA,NA
"861",5,5,21,1,1,8,4,5,1,0,0,1261,299,0,"MIX2",3,1,4,2,297,298,299,300
"862",5,5,22,1,1,8,4,5,1,1,1,1165,4,1,"MIX2",4,3,1,2,301,302,303,304
"863",5,5,23,2,1,4,0,0,2,1,1,1142,4,1,"MIX2",3,1,305,306,NA,NA,NA,NA
"864",5,5,24,2,1,2,0,0,1,1,0,988,7,1,"MIX2",2,307,NA,NA,NA,NA,NA,NA
"865",5,6,1,1,1,8,7,2,1,1,1,1321,1,1,"MIX2",4,3,1,2,308,309,310,311
"866",5,6,2,2,1,8,0,0,1,1,0,982,316,0,"MIX2",1,3,4,2,312,313,314,315
"867",5,6,3,1,1,2,2,1,1,1,1,2099,317,0,"MIX2",4,317,NA,NA,NA,NA,NA,NA
"868",5,6,4,1,1,2,1,2,2,0,1,1138,4,1,"MIX2",4,318,NA,NA,NA,NA,NA,NA
"869",5,6,5,2,1,4,0,0,1,1,0,780,321,0,"MIX2",2,4,319,320,NA,NA,NA,NA
"870",5,6,6,2,1,2,0,0,2,0,0,1279,323,0,"MIX2",2,322,NA,NA,NA,NA,NA,NA
"871",5,6,7,2,1,2,0,0,2,1,1,943,325,0,"MIX2",3,324,NA,NA,NA,NA,NA,NA
"872",5,6,8,2,1,2,0,0,2,1,1,1724,327,0,"MIX2",1,326,NA,NA,NA,NA,NA,NA
"873",5,6,9,2,1,8,0,0,2,1,1,1688,2,1,"MIX2",1,2,4,3,328,329,330,331
"874",5,6,10,2,1,4,0,0,2,1,1,1756,334,0,"MIX2",2,3,332,333,NA,NA,NA,NA
"875",5,6,11,2,1,2,0,0,2,1,1,1303,4,1,"MIX2",3,335,NA,NA,NA,NA,NA,NA
"876",5,6,12,2,1,4,0,0,1,1,0,1354,338,0,"MIX2",1,2,336,337,NA,NA,NA,NA
"877",5,6,13,2,1,4,0,0,2,1,1,987,341,0,"MIX2",4,2,339,340,NA,NA,NA,NA
"878",5,6,14,2,1,4,0,0,1,1,0,1292,344,0,"MIX2",2,1,342,343,NA,NA,NA,NA
"879",5,6,15,2,1,2,0,0,1,1,0,1083,346,0,"MIX2",4,345,NA,NA,NA,NA,NA,NA
"880",5,6,16,2,1,2,0,0,2,1,1,674,348,0,"MIX2",3,347,NA,NA,NA,NA,NA,NA
"881",5,6,17,1,1,2,1,2,1,1,1,666,3,1,"MIX2",3,349,NA,NA,NA,NA,NA,NA
"882",5,6,18,1,1,4,4,1,2,1,0,1528,2,1,"MIX2",2,1,350,351,NA,NA,NA,NA
"883",5,6,19,2,1,4,0,0,2,1,1,994,354,0,"MIX2",3,2,352,353,NA,NA,NA,NA
"884",5,6,20,2,1,8,0,0,1,1,0,1932,359,0,"MIX2",4,2,3,1,355,356,357,358
"885",5,6,21,1,1,8,2,7,2,1,0,2224,362,0,"MIX2",1,4,2,3,360,361,362,363
"886",5,6,22,2,1,2,0,0,2,1,1,1274,365,0,"MIX2",3,364,NA,NA,NA,NA,NA,NA
"887",5,6,23,1,1,8,3,6,2,1,0,1271,366,0,"MIX2",3,1,4,2,366,367,368,369
"888",5,6,24,1,1,8,2,7,2,1,0,1014,4,1,"MIX2",2,3,4,1,370,371,372,373
"889",5,7,1,2,1,8,0,0,2,1,1,1122,378,0,"MIX2",3,2,1,4,374,375,376,377
"890",5,7,2,1,1,8,1,8,1,1,1,1624,1,1,"MIX2",4,1,2,3,379,380,381,382
"891",5,7,3,2,1,4,0,0,2,0,0,1439,5,1,"MIX2",2,4,383,384,NA,NA,NA,NA
"892",5,7,4,2,1,8,0,0,1,0,1,1495,3,1,"MIX2",1,2,4,3,385,386,387,388
"893",5,7,5,2,1,2,0,0,1,1,0,1247,5,1,"MIX2",3,389,NA,NA,NA,NA,NA,NA
"894",5,7,6,2,1,4,0,0,2,1,1,2245,4,1,"MIX2",2,3,390,391,NA,NA,NA,NA
"895",5,7,7,2,1,4,0,0,1,0,1,3491,2,1,"MIX2",3,4,392,393,NA,NA,NA,NA
"896",5,7,8,2,1,4,0,0,2,1,1,1874,396,0,"MIX2",4,2,394,395,NA,NA,NA,NA
"897",5,7,9,2,1,2,0,0,1,1,0,3163,6,1,"MIX2",1,397,NA,NA,NA,NA,NA,NA
"898",5,7,10,2,1,8,0,0,1,1,0,909,402,0,"MIX2",4,2,3,1,398,399,400,401
"899",5,7,11,2,1,2,0,0,2,1,1,1115,404,0,"MIX2",3,403,NA,NA,NA,NA,NA,NA
"900",5,7,12,2,1,8,0,0,2,1,1,927,409,0,"MIX2",3,1,4,2,405,406,407,408
"901",5,7,13,2,1,4,0,0,2,1,1,786,412,0,"MIX2",2,1,410,411,NA,NA,NA,NA
"902",5,7,14,2,1,8,0,0,1,1,0,977,417,0,"MIX2",3,4,1,2,413,414,415,416
"903",5,7,15,2,1,4,0,0,1,1,0,658,420,0,"MIX2",4,3,418,419,NA,NA,NA,NA
"904",5,7,16,2,1,2,0,0,1,1,0,1275,422,0,"MIX2",3,421,NA,NA,NA,NA,NA,NA
"905",5,7,17,1,1,4,3,2,2,1,0,928,4,1,"MIX2",4,2,423,424,NA,NA,NA,NA
"906",5,7,18,2,1,8,0,0,2,1,1,1181,4,1,"MIX2",1,4,2,3,425,426,427,428
"907",5,7,19,1,1,4,2,3,1,1,1,1349,1,1,"MIX2",2,1,429,430,NA,NA,NA,NA
"908",5,7,20,1,1,8,6,3,2,1,0,1073,3,1,"MIX2",2,4,3,1,431,432,433,434
"909",5,7,21,2,1,4,0,0,2,1,1,2990,3,1,"MIX2",3,2,435,436,NA,NA,NA,NA
"910",5,7,22,1,1,2,1,2,1,1,1,970,2,1,"MIX2",2,437,NA,NA,NA,NA,NA,NA
"911",5,7,23,2,1,8,0,0,2,1,1,1219,442,0,"MIX2",4,1,2,3,438,439,440,441
"912",5,7,24,1,1,8,6,3,1,1,1,2148,3,1,"MIX2",4,3,1,2,443,444,445,446
"913",5,8,1,1,1,8,2,7,2,1,0,2607,3,1,"MIX2",2,3,4,1,447,448,449,450
"914",5,8,2,1,1,4,3,2,1,1,1,1535,451,0,"MIX2",3,1,451,452,NA,NA,NA,NA
"915",5,8,3,1,1,4,4,1,2,1,0,2074,2,1,"MIX2",1,2,453,454,NA,NA,NA,NA
"916",5,8,4,1,1,8,2,7,1,1,1,1082,4,1,"MIX2",2,4,3,1,455,456,457,458
"917",5,8,5,1,1,4,2,3,2,1,0,1077,459,0,"MIX2",3,2,459,460,NA,NA,NA,NA
"918",5,8,6,2,1,2,0,0,1,1,0,1038,5,1,"MIX2",4,461,NA,NA,NA,NA,NA,NA
"919",5,8,7,1,1,2,2,1,2,1,0,1256,462,0,"MIX2",3,462,NA,NA,NA,NA,NA,NA
"920",5,8,8,1,1,8,2,7,1,0,0,1847,464,0,"MIX2",2,3,1,4,463,464,465,466
"921",5,8,9,1,1,2,1,2,1,1,1,1121,467,0,"MIX2",4,467,NA,NA,NA,NA,NA,NA
"922",5,8,10,1,1,4,2,3,1,1,1,2796,2,1,"MIX2",1,2,468,469,NA,NA,NA,NA
"923",5,8,11,2,1,8,0,0,2,1,1,1022,474,0,"MIX2",2,1,4,3,470,471,472,473
"924",5,8,12,2,1,2,0,0,1,1,0,1383,476,0,"MIX2",4,475,NA,NA,NA,NA,NA,NA
"925",5,8,13,2,1,2,0,0,1,1,0,1314,478,0,"MIX2",3,477,NA,NA,NA,NA,NA,NA
"926",5,8,14,2,1,4,0,0,2,0,0,1125,8,1,"MIX2",4,3,479,480,NA,NA,NA,NA
"927",5,8,15,1,1,2,2,1,2,1,0,876,481,0,"MIX2",4,481,NA,NA,NA,NA,NA,NA
"928",5,8,16,2,1,2,0,0,2,1,1,1164,483,0,"MIX2",1,482,NA,NA,NA,NA,NA,NA
"929",5,8,17,2,1,4,0,0,2,1,1,981,486,0,"MIX2",1,3,484,485,NA,NA,NA,NA
"930",5,8,18,2,1,4,0,0,1,1,0,965,6,1,"MIX2",3,1,487,488,NA,NA,NA,NA
"931",5,8,19,1,1,8,4,5,2,1,0,960,489,0,"MIX2",1,2,4,3,489,490,491,492
"932",5,8,20,2,1,2,0,0,1,1,0,765,494,0,"MIX2",4,493,NA,NA,NA,NA,NA,NA
"933",5,8,21,2,1,8,0,0,2,1,1,1294,4,1,"MIX2",4,2,3,1,495,496,497,498
"934",5,8,22,1,1,8,8,1,1,1,1,1213,502,0,"MIX2",2,1,3,4,499,500,501,502
"935",5,8,23,2,1,4,0,0,1,1,0,1764,8,1,"MIX2",2,3,503,504,NA,NA,NA,NA
"936",5,8,24,2,1,2,0,0,2,1,1,1249,4,1,"MIX2",2,505,NA,NA,NA,NA,NA,NA
"937",5,9,1,1,1,4,4,1,1,1,1,1101,1,1,"MIX2",1,2,506,507,NA,NA,NA,NA
"938",5,9,2,1,1,8,5,4,1,1,1,1090,511,0,"MIX2",4,2,1,3,508,509,510,511
"939",5,9,3,1,1,8,7,2,1,1,1,872,513,0,"MIX2",1,4,3,2,512,513,514,515
"940",5,9,4,1,1,2,2,1,2,1,0,665,516,0,"MIX2",2,516,NA,NA,NA,NA,NA,NA
"941",5,9,5,2,1,2,0,0,2,1,1,960,518,0,"MIX2",2,517,NA,NA,NA,NA,NA,NA
"942",5,9,6,1,1,2,1,2,2,1,0,716,519,0,"MIX2",2,519,NA,NA,NA,NA,NA,NA
"943",5,9,7,1,1,8,6,3,1,0,0,1280,4,1,"MIX2",3,2,4,1,520,521,522,523
"944",5,9,8,1,1,2,2,1,1,1,1,1455,1,1,"MIX2",1,524,NA,NA,NA,NA,NA,NA
"945",5,9,9,2,1,8,0,0,2,0,0,5300,529,0,"MIX2",4,2,3,1,525,526,527,528
"946",5,9,10,1,1,8,5,4,1,1,1,1409,3,1,"MIX2",1,2,3,4,530,531,532,533
"947",5,9,11,1,1,8,7,2,2,1,0,1210,534,0,"MIX2",4,2,1,3,534,535,536,537
"948",5,9,12,1,1,8,8,1,2,1,0,1178,541,0,"MIX2",3,2,4,1,538,539,540,541
"949",5,9,13,1,1,2,2,1,1,1,1,862,542,0,"MIX2",3,542,NA,NA,NA,NA,NA,NA
"950",5,9,14,2,1,2,0,0,2,1,1,816,544,0,"MIX2",4,543,NA,NA,NA,NA,NA,NA
"951",5,9,15,1,1,4,1,4,2,1,0,1112,1,1,"MIX2",2,1,545,546,NA,NA,NA,NA
"952",5,9,16,1,1,4,4,1,2,1,0,883,2,1,"MIX2",4,2,547,548,NA,NA,NA,NA
"953",5,9,17,1,1,8,7,2,2,1,0,881,4,1,"MIX2",1,3,4,2,549,550,551,552
"954",5,9,18,2,1,2,0,0,2,1,1,865,2,1,"MIX2",1,553,NA,NA,NA,NA,NA,NA
"955",5,9,19,2,1,8,0,0,2,1,1,1648,3,1,"MIX2",2,4,1,3,554,555,556,557
"956",5,9,20,1,1,4,2,3,2,1,0,1222,1,1,"MIX2",2,1,558,559,NA,NA,NA,NA
"957",5,9,21,2,1,2,0,0,2,1,1,905,3,1,"MIX2",3,560,NA,NA,NA,NA,NA,NA
"958",5,9,22,2,1,2,0,0,2,0,0,1096,5,1,"MIX2",2,561,NA,NA,NA,NA,NA,NA
"959",5,9,23,2,1,8,0,0,1,1,0,1485,566,0,"MIX2",4,2,1,3,562,563,564,565
"960",5,9,24,1,1,4,3,2,2,1,0,969,567,0,"MIX2",3,1,567,568,NA,NA,NA,NA
"961",6,2,1,1,1,2,1,2,2,1,0,879,1,1,"MIX2",1,63,NA,NA,NA,NA,NA,NA
"962",6,2,2,1,1,8,4,5,1,1,1,1247,3,1,"MIX2",1,4,3,2,64,65,66,67
"963",6,2,3,1,1,4,4,1,1,1,1,949,2,1,"MIX2",2,4,68,69,NA,NA,NA,NA
"964",6,2,4,2,1,2,0,0,2,1,1,1299,4,1,"MIX2",2,70,NA,NA,NA,NA,NA,NA
"965",6,2,5,1,1,2,1,2,2,1,0,1186,3,1,"MIX2",3,71,NA,NA,NA,NA,NA,NA
"966",6,2,6,2,1,4,0,0,2,1,1,1099,74,0,"MIX2",3,1,72,73,NA,NA,NA,NA
"967",6,2,7,1,1,8,4,5,1,1,1,993,75,0,"MIX2",4,3,2,1,75,76,77,78
"968",6,2,8,2,1,2,0,0,2,1,1,925,4,1,"MIX2",4,79,NA,NA,NA,NA,NA,NA
"969",6,2,9,2,1,4,0,0,2,1,1,960,82,0,"MIX2",3,4,80,81,NA,NA,NA,NA
"970",6,2,10,2,1,4,0,0,2,1,1,1026,1,1,"MIX2",3,4,83,84,NA,NA,NA,NA
"971",6,2,11,2,1,2,0,0,2,1,1,1069,4,1,"MIX2",1,85,NA,NA,NA,NA,NA,NA
"972",6,2,12,1,1,2,1,2,1,1,1,838,86,0,"MIX2",2,86,NA,NA,NA,NA,NA,NA
"973",6,2,13,2,1,8,0,0,2,1,1,1654,91,0,"MIX2",2,4,3,1,87,88,89,90
"974",6,2,14,1,1,8,6,3,1,0,0,1621,2,1,"MIX2",3,4,1,2,92,93,94,95
"975",6,2,15,1,1,4,3,2,1,1,1,942,97,0,"MIX2",2,4,96,97,NA,NA,NA,NA
"976",6,2,16,2,1,4,0,0,2,1,1,1169,1,1,"MIX2",3,1,98,99,NA,NA,NA,NA
"977",6,2,17,2,1,4,0,0,1,1,0,1595,102,0,"MIX2",4,3,100,101,NA,NA,NA,NA
"978",6,2,18,2,1,4,0,0,2,1,1,1844,2,1,"MIX2",1,2,103,104,NA,NA,NA,NA
"979",6,2,19,1,1,8,5,4,2,1,0,1645,105,0,"MIX2",3,4,2,1,105,106,107,108
"980",6,2,20,1,1,4,4,1,1,1,1,916,109,0,"MIX2",3,1,109,110,NA,NA,NA,NA
"981",6,2,21,2,1,8,0,0,2,1,1,1148,1,1,"MIX2",1,2,4,3,111,112,113,114
"982",6,2,22,2,1,8,0,0,1,1,0,1311,6,1,"MIX2",4,2,1,3,115,116,117,118
"983",6,2,23,2,1,4,0,0,2,1,1,801,121,0,"MIX2",3,1,119,120,NA,NA,NA,NA
"984",6,2,24,2,1,4,0,0,1,0,1,2265,4,1,"MIX2",1,3,122,123,NA,NA,NA,NA
"985",6,3,1,1,1,4,1,4,2,1,0,1820,124,0,"MIX2",2,4,124,125,NA,NA,NA,NA
"986",6,3,2,1,1,8,4,5,1,1,1,1315,128,0,"MIX2",3,4,1,2,126,127,128,129
"987",6,3,3,2,1,8,0,0,2,1,1,1423,4,1,"MIX2",2,3,4,1,130,131,132,133
"988",6,3,4,1,1,2,1,2,2,1,0,1546,3,1,"MIX2",3,134,NA,NA,NA,NA,NA,NA
"989",6,3,5,2,1,2,0,0,1,1,0,1216,6,1,"MIX2",2,135,NA,NA,NA,NA,NA,NA
"990",6,3,6,1,1,4,4,1,1,1,1,1032,3,1,"MIX2",3,4,136,137,NA,NA,NA,NA
"991",6,3,7,2,1,2,0,0,1,1,0,1106,5,1,"MIX2",3,138,NA,NA,NA,NA,NA,NA
"992",6,3,8,2,1,4,0,0,2,1,1,798,141,0,"MIX2",1,3,139,140,NA,NA,NA,NA
"993",6,3,9,2,1,8,0,0,1,1,0,1840,146,0,"MIX2",4,3,1,2,142,143,144,145
"994",6,3,10,1,1,2,2,1,1,1,1,1226,147,0,"MIX2",1,147,NA,NA,NA,NA,NA,NA
"995",6,3,11,2,1,8,0,0,1,1,0,843,8,1,"MIX2",4,1,3,2,148,149,150,151
"996",6,3,12,1,1,4,4,1,1,1,1,947,4,1,"MIX2",4,2,152,153,NA,NA,NA,NA
"997",6,3,13,1,1,4,2,3,1,1,1,725,4,1,"MIX2",3,4,154,155,NA,NA,NA,NA
"998",6,3,14,1,1,2,2,1,2,1,0,1052,156,0,"MIX2",1,156,NA,NA,NA,NA,NA,NA
"999",6,3,15,2,1,4,0,0,1,1,0,970,8,1,"MIX2",4,3,157,158,NA,NA,NA,NA
"1000",6,3,16,2,1,8,0,0,1,1,0,837,163,0,"MIX2",2,4,3,1,159,160,161,162
"1001",6,3,17,2,1,2,0,0,2,1,1,1255,1,1,"MIX2",1,164,NA,NA,NA,NA,NA,NA
"1002",6,3,18,2,1,4,0,0,1,1,0,765,7,1,"MIX2",1,2,165,166,NA,NA,NA,NA
"1003",6,3,19,1,1,8,1,8,1,1,1,1856,1,1,"MIX2",2,1,4,3,167,168,169,170
"1004",6,3,20,1,1,8,5,4,2,1,0,1351,2,1,"MIX2",3,4,1,2,171,172,173,174
"1005",6,3,21,2,1,2,0,0,1,1,0,979,176,0,"MIX2",4,175,NA,NA,NA,NA,NA,NA
"1006",6,3,22,2,1,4,0,0,2,1,1,948,179,0,"MIX2",3,1,177,178,NA,NA,NA,NA
"1007",6,3,23,2,1,2,0,0,2,1,1,1346,181,0,"MIX2",3,180,NA,NA,NA,NA,NA,NA
"1008",6,3,24,1,1,2,1,2,1,1,1,960,3,1,"MIX2",3,182,NA,NA,NA,NA,NA,NA
"1009",6,4,1,1,1,8,2,7,2,1,0,1078,2,1,"MIX2",2,4,1,3,183,184,185,186
"1010",6,4,2,1,1,4,1,4,2,1,0,1139,188,0,"MIX2",2,1,187,188,NA,NA,NA,NA
"1011",6,4,3,1,1,8,2,7,1,1,1,712,4,1,"MIX2",1,3,4,2,189,190,191,192
"1012",6,4,4,2,1,4,0,0,1,1,0,3251,195,0,"MIX2",2,3,193,194,NA,NA,NA,NA
"1013",6,4,5,1,1,2,2,1,2,1,0,1157,3,1,"MIX2",3,196,NA,NA,NA,NA,NA,NA
"1014",6,4,6,1,1,8,3,6,1,1,1,922,2,1,"MIX2",4,1,2,3,197,198,199,200
"1015",6,4,7,1,1,4,1,4,1,1,1,606,202,0,"MIX2",2,4,201,202,NA,NA,NA,NA
"1016",6,4,8,1,1,8,4,5,2,1,0,1127,2,1,"MIX2",3,4,2,1,203,204,205,206
"1017",6,4,9,1,1,8,2,7,1,1,1,669,210,0,"MIX2",3,1,2,4,207,208,209,210
"1018",6,4,10,2,1,2,0,0,2,1,1,789,212,0,"MIX2",3,211,NA,NA,NA,NA,NA,NA
"1019",6,4,11,2,1,8,0,0,2,1,1,936,3,1,"MIX2",3,1,4,2,213,214,215,216
"1020",6,4,12,1,1,2,1,2,1,1,1,469,217,0,"MIX2",3,217,NA,NA,NA,NA,NA,NA
"1021",6,4,13,1,1,8,6,3,1,1,1,627,3,1,"MIX2",1,4,2,3,218,219,220,221
"1022",6,4,14,1,1,2,1,2,2,1,0,1118,1,1,"MIX2",1,222,NA,NA,NA,NA,NA,NA
"1023",6,4,15,2,1,4,0,0,1,1,0,841,225,0,"MIX2",2,1,223,224,NA,NA,NA,NA
"1024",6,4,16,1,1,2,1,2,2,1,0,939,4,1,"MIX2",4,226,NA,NA,NA,NA,NA,NA
"1025",6,4,17,1,1,8,2,7,2,1,0,1334,230,0,"MIX2",4,2,1,3,227,228,229,230
"1026",6,4,18,2,1,4,0,0,1,1,0,873,5,1,"MIX2",1,4,231,232,NA,NA,NA,NA
"1027",6,4,19,2,1,8,0,0,2,1,1,742,1,1,"MIX2",3,4,2,1,233,234,235,236
"1028",6,4,20,1,1,8,5,4,1,1,1,793,4,1,"MIX2",2,1,3,4,237,238,239,240
"1029",6,4,21,2,1,4,0,0,2,1,1,608,243,0,"MIX2",4,3,241,242,NA,NA,NA,NA
"1030",6,4,22,2,1,4,0,0,1,1,0,896,6,1,"MIX2",1,4,244,245,NA,NA,NA,NA
"1031",6,4,23,1,1,4,4,1,2,1,0,933,4,1,"MIX2",4,2,246,247,NA,NA,NA,NA
"1032",6,4,24,2,1,8,0,0,2,1,1,817,252,0,"MIX2",4,1,2,3,248,249,250,251
"1033",6,5,1,2,1,4,0,0,2,1,1,760,255,0,"MIX2",1,2,253,254,NA,NA,NA,NA
"1034",6,5,2,2,1,2,0,0,1,1,0,1821,257,0,"MIX2",3,256,NA,NA,NA,NA,NA,NA
"1035",6,5,3,2,1,4,0,0,1,1,0,1740,260,0,"MIX2",4,1,258,259,NA,NA,NA,NA
"1036",6,5,4,1,1,4,4,1,2,1,0,975,262,0,"MIX2",3,2,261,262,NA,NA,NA,NA
"1037",6,5,5,2,1,8,0,0,2,1,1,906,1,1,"MIX2",1,2,4,3,263,264,265,266
"1038",6,5,6,1,1,2,2,1,2,1,0,2169,267,0,"MIX2",3,267,NA,NA,NA,NA,NA,NA
"1039",6,5,7,1,1,2,2,1,2,1,0,998,268,0,"MIX2",2,268,NA,NA,NA,NA,NA,NA
"1040",6,5,8,2,1,8,0,0,1,0,1,1070,273,0,"MIX2",2,4,3,1,269,270,271,272
"1041",6,5,9,2,1,8,0,0,2,1,1,805,3,1,"MIX2",1,3,4,2,274,275,276,277
"1042",6,5,10,1,1,2,1,2,2,1,0,920,278,0,"MIX2",2,278,NA,NA,NA,NA,NA,NA
"1043",6,5,11,2,1,8,0,0,2,1,1,660,3,1,"MIX2",3,4,1,2,279,280,281,282
"1044",6,5,12,1,1,4,1,4,2,1,0,1009,283,0,"MIX2",4,3,283,284,NA,NA,NA,NA
"1045",6,5,13,1,1,4,1,4,2,1,0,817,2,1,"MIX2",3,2,285,286,NA,NA,NA,NA
"1046",6,5,14,1,1,8,7,2,2,1,0,755,4,1,"MIX2",1,4,3,2,287,288,289,290
"1047",6,5,15,1,1,4,4,1,1,1,1,941,291,0,"MIX2",2,4,291,292,NA,NA,NA,NA
"1048",6,5,16,1,1,8,3,6,1,1,1,810,1,1,"MIX2",3,4,1,2,293,294,295,296
"1049",6,5,17,2,1,8,0,0,2,1,1,826,2,1,"MIX2",1,3,2,4,297,298,299,300
"1050",6,5,18,2,1,2,0,0,2,1,1,2365,4,1,"MIX2",4,301,NA,NA,NA,NA,NA,NA
"1051",6,5,19,2,1,2,0,0,1,1,0,689,303,0,"MIX2",3,302,NA,NA,NA,NA,NA,NA
"1052",6,5,20,1,1,2,1,2,1,1,1,1001,304,0,"MIX2",3,304,NA,NA,NA,NA,NA,NA
"1053",6,5,21,2,1,8,0,0,2,1,1,754,2,1,"MIX2",4,2,3,1,305,306,307,308
"1054",6,5,22,2,1,2,0,0,1,1,0,1831,310,0,"MIX2",4,309,NA,NA,NA,NA,NA,NA
"1055",6,5,23,1,1,8,4,5,1,1,1,783,4,1,"MIX2",4,2,3,1,311,312,313,314
"1056",6,5,24,2,1,8,0,0,2,1,1,816,3,1,"MIX2",1,4,2,3,315,316,317,318
"1057",6,6,1,2,1,2,0,0,2,1,1,1212,320,0,"MIX2",1,319,NA,NA,NA,NA,NA,NA
"1058",6,6,2,2,1,8,0,0,1,1,0,798,325,0,"MIX2",4,3,1,2,321,322,323,324
"1059",6,6,3,1,1,2,1,2,1,1,1,1537,1,1,"MIX2",1,326,NA,NA,NA,NA,NA,NA
"1060",6,6,4,2,1,8,0,0,1,1,0,804,7,1,"MIX2",2,4,3,1,327,328,329,330
"1061",6,6,5,1,1,2,2,1,1,1,1,919,331,0,"MIX2",2,331,NA,NA,NA,NA,NA,NA
"1062",6,6,6,1,1,2,2,1,1,1,1,503,4,1,"MIX2",4,332,NA,NA,NA,NA,NA,NA
"1063",6,6,7,1,1,2,2,1,1,1,1,438,333,0,"MIX2",3,333,NA,NA,NA,NA,NA,NA
"1064",6,6,8,1,1,8,2,7,1,1,1,710,4,1,"MIX2",3,1,4,2,334,335,336,337
"1065",6,6,9,1,1,2,2,1,2,1,0,845,338,0,"MIX2",2,338,NA,NA,NA,NA,NA,NA
"1066",6,6,10,2,1,2,0,0,2,1,1,800,2,1,"MIX2",4,339,NA,NA,NA,NA,NA,NA
"1067",6,6,11,1,1,4,1,4,2,1,0,1240,3,1,"MIX2",1,3,340,341,NA,NA,NA,NA
"1068",6,6,12,1,1,4,3,2,1,1,1,672,1,1,"MIX2",2,1,342,343,NA,NA,NA,NA
"1069",6,6,13,1,1,4,1,4,2,1,0,1148,345,0,"MIX2",3,4,344,345,NA,NA,NA,NA
"1070",6,6,14,1,1,4,3,2,2,1,0,918,346,0,"MIX2",4,3,346,347,NA,NA,NA,NA
"1071",6,6,15,2,1,2,0,0,1,1,0,995,349,0,"MIX2",1,348,NA,NA,NA,NA,NA,NA
"1072",6,6,16,1,1,8,4,5,2,1,0,813,4,1,"MIX2",3,2,1,4,350,351,352,353
"1073",6,6,17,1,1,4,1,4,2,1,0,1253,1,1,"MIX2",1,3,354,355,NA,NA,NA,NA
"1074",6,6,18,1,1,8,6,3,1,1,1,947,359,0,"MIX2",3,4,1,2,356,357,358,359
"1075",6,6,19,1,1,2,2,1,2,1,0,1666,360,0,"MIX2",1,360,NA,NA,NA,NA,NA,NA
"1076",6,6,20,1,1,4,2,3,2,1,0,2583,362,0,"MIX2",3,2,361,362,NA,NA,NA,NA
"1077",6,6,21,1,1,2,2,1,2,1,0,723,363,0,"MIX2",1,363,NA,NA,NA,NA,NA,NA
"1078",6,6,22,2,1,2,0,0,1,1,0,666,5,1,"MIX2",2,364,NA,NA,NA,NA,NA,NA
"1079",6,6,23,2,1,4,0,0,2,1,1,648,367,0,"MIX2",2,3,365,366,NA,NA,NA,NA
"1080",6,6,24,1,1,8,5,4,1,1,1,701,4,1,"MIX2",4,3,2,1,368,369,370,371
"1081",6,7,1,1,1,2,2,1,2,1,0,1375,2,1,"MIX2",2,372,NA,NA,NA,NA,NA,NA
"1082",6,7,2,2,1,4,0,0,1,1,0,1441,375,0,"MIX2",4,2,373,374,NA,NA,NA,NA
"1083",6,7,3,1,1,8,4,5,2,1,0,905,1,1,"MIX2",3,4,2,1,376,377,378,379
"1084",6,7,4,1,1,8,4,5,2,1,0,662,4,1,"MIX2",3,2,4,1,380,381,382,383
"1085",6,7,5,2,1,4,0,0,2,1,1,836,4,1,"MIX2",3,4,384,385,NA,NA,NA,NA
"1086",6,7,6,1,1,8,6,3,2,1,0,805,2,1,"MIX2",2,3,4,1,386,387,388,389
"1087",6,7,7,1,1,4,4,1,1,1,1,524,390,0,"MIX2",4,3,390,391,NA,NA,NA,NA
"1088",6,7,8,1,1,2,2,1,1,1,1,651,392,0,"MIX2",2,392,NA,NA,NA,NA,NA,NA
"1089",6,7,9,2,1,4,0,0,1,1,0,938,395,0,"MIX2",3,2,393,394,NA,NA,NA,NA
"1090",6,7,10,1,1,4,1,4,1,1,1,972,397,0,"MIX2",3,4,396,397,NA,NA,NA,NA
"1091",6,7,11,1,1,4,3,2,2,1,0,1086,398,0,"MIX2",3,4,398,399,NA,NA,NA,NA
"1092",6,7,12,2,1,2,0,0,1,1,0,885,401,0,"MIX2",4,400,NA,NA,NA,NA,NA,NA
"1093",6,7,13,1,1,8,5,4,1,1,1,803,1,1,"MIX2",3,1,4,2,402,403,404,405
"1094",6,7,14,1,1,4,3,2,1,1,1,618,3,1,"MIX2",3,1,406,407,NA,NA,NA,NA
"1095",6,7,15,1,1,2,2,1,1,1,1,470,408,0,"MIX2",2,408,NA,NA,NA,NA,NA,NA
"1096",6,7,16,2,1,8,0,0,1,1,0,1749,6,1,"MIX2",3,2,4,1,409,410,411,412
"1097",6,7,17,1,1,2,1,2,1,1,1,563,413,0,"MIX2",1,413,NA,NA,NA,NA,NA,NA
"1098",6,7,18,1,1,4,1,4,2,1,0,1221,415,0,"MIX2",1,2,414,415,NA,NA,NA,NA
"1099",6,7,19,2,1,4,0,0,2,1,1,684,1,1,"MIX2",4,1,416,417,NA,NA,NA,NA
"1100",6,7,20,2,1,4,0,0,2,1,1,602,1,1,"MIX2",2,1,418,419,NA,NA,NA,NA
"1101",6,7,21,2,1,8,0,0,1,1,0,916,424,0,"MIX2",3,1,2,4,420,421,422,423
"1102",6,7,22,1,1,4,1,4,2,1,0,1336,425,0,"MIX2",3,2,425,426,NA,NA,NA,NA
"1103",6,7,23,1,1,2,2,1,1,1,1,583,427,0,"MIX2",2,427,NA,NA,NA,NA,NA,NA
"1104",6,7,24,2,1,4,0,0,2,1,1,568,2,1,"MIX2",3,4,428,429,NA,NA,NA,NA
"1105",6,8,1,1,1,8,4,5,2,1,0,679,4,1,"MIX2",2,1,3,4,430,431,432,433
"1106",6,8,2,1,1,4,1,4,1,1,1,660,435,0,"MIX2",4,3,434,435,NA,NA,NA,NA
"1107",6,8,3,2,1,8,0,0,2,1,1,1131,1,1,"MIX2",4,1,3,2,436,437,438,439
"1108",6,8,4,1,1,2,2,1,1,1,1,913,440,0,"MIX2",2,440,NA,NA,NA,NA,NA,NA
"1109",6,8,5,1,1,2,1,2,1,1,1,560,441,0,"MIX2",2,441,NA,NA,NA,NA,NA,NA
"1110",6,8,6,1,1,8,5,4,2,1,0,730,1,1,"MIX2",1,3,2,4,442,443,444,445
"1111",6,8,7,1,1,4,3,2,1,1,1,1237,446,0,"MIX2",2,1,446,447,NA,NA,NA,NA
"1112",6,8,8,2,1,4,0,0,1,1,0,748,6,1,"MIX2",2,4,448,449,NA,NA,NA,NA
"1113",6,8,9,2,1,8,0,0,2,1,1,815,454,0,"MIX2",3,1,4,2,450,451,452,453
"1114",6,8,10,1,1,2,1,2,1,1,1,354,455,0,"MIX2",4,455,NA,NA,NA,NA,NA,NA
"1115",6,8,11,2,1,4,0,0,2,1,1,555,4,1,"MIX2",3,4,456,457,NA,NA,NA,NA
"1116",6,8,12,1,1,8,1,8,1,0,0,535,459,0,"MIX2",3,4,2,1,458,459,460,461
"1117",6,8,13,2,1,8,0,0,1,1,0,753,466,0,"MIX2",4,1,3,2,462,463,464,465
"1118",6,8,14,2,1,4,0,0,2,1,1,780,3,1,"MIX2",2,3,467,468,NA,NA,NA,NA
"1119",6,8,15,2,1,2,0,0,2,1,1,881,470,0,"MIX2",4,469,NA,NA,NA,NA,NA,NA
"1120",6,8,16,1,1,8,8,1,2,1,0,415,1,1,"MIX2",2,3,1,4,471,472,473,474
"1121",6,8,17,1,1,8,8,1,1,1,1,703,1,1,"MIX2",3,4,2,1,475,476,477,478
"1122",6,8,18,2,1,4,0,0,2,1,1,604,1,1,"MIX2",2,1,479,480,NA,NA,NA,NA
"1123",6,8,19,2,1,2,0,0,1,1,0,951,5,1,"MIX2",3,481,NA,NA,NA,NA,NA,NA
"1124",6,8,20,2,1,4,0,0,2,1,1,633,484,0,"MIX2",3,4,482,483,NA,NA,NA,NA
"1125",6,8,21,2,1,8,0,0,2,1,1,1230,3,1,"MIX2",2,4,1,3,485,486,487,488
"1126",6,8,22,1,1,8,4,5,2,1,0,1103,489,0,"MIX2",1,2,4,3,489,490,491,492
"1127",6,8,23,2,1,8,0,0,2,1,1,709,3,1,"MIX2",3,4,2,1,493,494,495,496
"1128",6,8,24,1,1,4,1,4,1,1,1,1041,498,0,"MIX2",3,2,497,498,NA,NA,NA,NA
"1129",6,9,1,1,1,8,2,7,1,1,1,1116,502,0,"MIX2",3,1,2,4,499,500,501,502
"1130",6,9,2,2,1,8,0,0,2,1,1,2978,507,0,"MIX2",1,3,4,2,503,504,505,506
"1131",6,9,3,2,1,2,0,0,2,1,1,781,4,1,"MIX2",4,508,NA,NA,NA,NA,NA,NA
"1132",6,9,4,1,1,4,4,1,1,0,0,662,510,0,"MIX2",2,1,509,510,NA,NA,NA,NA
"1133",6,9,5,1,1,2,2,1,2,1,0,783,511,0,"MIX2",1,511,NA,NA,NA,NA,NA,NA
"1134",6,9,6,2,1,4,0,0,2,1,1,631,4,1,"MIX2",2,3,512,513,NA,NA,NA,NA
"1135",6,9,7,1,1,4,3,2,1,1,1,1397,515,0,"MIX2",1,4,514,515,NA,NA,NA,NA
"1136",6,9,8,1,1,8,5,4,1,1,1,1391,519,0,"MIX2",2,1,4,3,516,517,518,519
"1137",6,9,9,2,1,2,0,0,1,1,0,1451,8,1,"MIX2",3,520,NA,NA,NA,NA,NA,NA
"1138",6,9,10,2,1,2,0,0,1,1,0,1077,5,1,"MIX2",4,521,NA,NA,NA,NA,NA,NA
"1139",6,9,11,1,1,4,4,1,1,1,1,834,523,0,"MIX2",3,1,522,523,NA,NA,NA,NA
"1140",6,9,12,2,1,8,0,0,1,1,0,914,528,0,"MIX2",2,3,4,1,524,525,526,527
"1141",6,9,13,2,1,8,0,0,2,1,1,752,1,1,"MIX2",2,3,1,4,529,530,531,532
"1142",6,9,14,2,1,8,0,0,1,1,0,1250,6,1,"MIX2",1,3,4,2,533,534,535,536
"1143",6,9,15,2,1,4,0,0,1,1,0,936,539,0,"MIX2",4,3,537,538,NA,NA,NA,NA
"1144",6,9,16,1,1,8,5,4,1,1,1,1588,1,1,"MIX2",1,2,3,4,540,541,542,543
"1145",6,9,17,2,1,4,0,0,2,1,1,668,546,0,"MIX2",4,3,544,545,NA,NA,NA,NA
"1146",6,9,18,2,1,2,0,0,2,1,1,997,548,0,"MIX2",1,547,NA,NA,NA,NA,NA,NA
"1147",6,9,19,2,1,4,0,0,2,1,1,1029,551,0,"MIX2",2,3,549,550,NA,NA,NA,NA
"1148",6,9,20,1,1,8,1,8,2,1,0,1293,553,0,"MIX2",1,3,4,2,552,553,554,555
"1149",6,9,21,1,1,8,6,3,2,1,0,748,2,1,"MIX2",4,1,2,3,556,557,558,559
"1150",6,9,22,2,1,2,0,0,1,1,0,689,6,1,"MIX2",3,560,NA,NA,NA,NA,NA,NA
"1151",6,9,23,1,1,2,2,1,1,1,1,825,1,1,"MIX2",1,561,NA,NA,NA,NA,NA,NA
"1152",6,9,24,2,1,4,0,0,2,1,1,849,1,1,"MIX2",2,3,562,563,NA,NA,NA,NA
"1153",7,2,1,2,1,8,0,0,2,1,1,3698,71,0,"MIX2",2,1,4,3,67,68,69,70
"1154",7,2,2,2,1,2,0,0,2,1,1,1250,3,1,"MIX2",2,72,NA,NA,NA,NA,NA,NA
"1155",7,2,3,2,1,2,0,0,1,1,0,4467,74,0,"MIX2",4,73,NA,NA,NA,NA,NA,NA
"1156",7,2,4,2,1,8,0,0,2,1,1,1283,4,1,"MIX2",3,1,4,2,75,76,77,78
"1157",7,2,5,1,1,8,2,7,2,1,0,1283,80,0,"MIX2",2,1,4,3,79,80,81,82
"1158",7,2,6,1,1,4,4,1,1,1,1,809,84,0,"MIX2",3,2,83,84,NA,NA,NA,NA
"1159",7,2,7,2,1,2,0,0,2,1,1,2284,86,0,"MIX2",1,85,NA,NA,NA,NA,NA,NA
"1160",7,2,8,1,1,2,2,1,1,1,1,836,3,1,"MIX2",3,87,NA,NA,NA,NA,NA,NA
"1161",7,2,9,2,1,8,0,0,2,1,1,1142,1,1,"MIX2",3,1,4,2,88,89,90,91
"1162",7,2,10,2,1,8,0,0,1,1,0,1145,96,0,"MIX2",2,3,1,4,92,93,94,95
"1163",7,2,11,1,1,4,2,3,2,1,0,1396,1,1,"MIX2",1,4,97,98,NA,NA,NA,NA
"1164",7,2,12,1,1,2,2,1,1,1,1,1120,99,0,"MIX2",1,99,NA,NA,NA,NA,NA,NA
"1165",7,2,13,2,1,8,0,0,1,1,0,5140,104,0,"MIX2",1,3,4,2,100,101,102,103
"1166",7,2,14,2,1,2,0,0,1,1,0,1035,8,1,"MIX2",4,105,NA,NA,NA,NA,NA,NA
"1167",7,2,15,2,1,2,0,0,2,1,1,1013,107,0,"MIX2",4,106,NA,NA,NA,NA,NA,NA
"1168",7,2,16,2,1,2,0,0,2,1,1,1664,3,1,"MIX2",1,108,NA,NA,NA,NA,NA,NA
"1169",7,2,17,1,1,4,3,2,2,1,0,854,110,0,"MIX2",2,3,109,110,NA,NA,NA,NA
"1170",7,2,18,2,1,8,0,0,2,1,1,1111,115,0,"MIX2",3,1,4,2,111,112,113,114
"1171",7,2,19,1,1,4,2,3,1,1,1,5300,116,0,"MIX2",4,3,116,117,NA,NA,NA,NA
"1172",7,2,20,2,1,4,0,0,1,1,0,1177,5,1,"MIX2",4,2,118,119,NA,NA,NA,NA
"1173",7,2,21,2,1,8,0,0,1,1,0,1134,124,0,"MIX2",4,3,1,2,120,121,122,123
"1174",7,2,22,1,1,8,7,2,1,1,1,883,2,1,"MIX2",4,1,2,3,125,126,127,128
"1175",7,2,23,2,1,2,0,0,1,1,0,1060,5,1,"MIX2",1,129,NA,NA,NA,NA,NA,NA
"1176",7,2,24,2,1,2,0,0,1,1,0,1742,8,1,"MIX2",3,130,NA,NA,NA,NA,NA,NA
"1177",7,3,1,1,1,2,1,2,2,1,0,1564,4,1,"MIX2",4,131,NA,NA,NA,NA,NA,NA
"1178",7,3,2,1,1,2,1,2,2,1,0,1104,132,0,"MIX2",3,132,NA,NA,NA,NA,NA,NA
"1179",7,3,3,1,1,2,2,1,2,1,0,888,133,0,"MIX2",4,133,NA,NA,NA,NA,NA,NA
"1180",7,3,4,2,1,2,0,0,1,1,0,2264,6,1,"MIX2",1,134,NA,NA,NA,NA,NA,NA
"1181",7,3,5,2,1,4,0,0,1,1,0,1029,5,1,"MIX2",4,2,135,136,NA,NA,NA,NA
"1182",7,3,6,2,1,4,0,0,1,1,0,1493,139,0,"MIX2",2,4,137,138,NA,NA,NA,NA
"1183",7,3,7,2,1,2,0,0,1,1,0,1374,141,0,"MIX2",4,140,NA,NA,NA,NA,NA,NA
"1184",7,3,8,2,1,4,0,0,1,1,0,1008,7,1,"MIX2",2,4,142,143,NA,NA,NA,NA
"1185",7,3,9,1,1,8,6,3,1,1,1,1387,1,1,"MIX2",3,4,1,2,144,145,146,147
"1186",7,3,10,1,1,2,1,2,2,0,1,1127,3,1,"MIX2",3,148,NA,NA,NA,NA,NA,NA
"1187",7,3,11,2,1,2,0,0,1,1,0,1581,150,0,"MIX2",1,149,NA,NA,NA,NA,NA,NA
"1188",7,3,12,1,1,4,4,1,1,1,1,887,1,1,"MIX2",1,4,151,152,NA,NA,NA,NA
"1189",7,3,13,1,1,4,3,2,2,1,0,1277,2,1,"MIX2",2,4,153,154,NA,NA,NA,NA
"1190",7,3,14,1,1,2,1,2,2,1,0,1101,155,0,"MIX2",1,155,NA,NA,NA,NA,NA,NA
"1191",7,3,15,2,1,2,0,0,2,1,1,1414,2,1,"MIX2",2,156,NA,NA,NA,NA,NA,NA
"1192",7,3,16,1,1,4,1,4,2,1,0,1285,158,0,"MIX2",4,2,157,158,NA,NA,NA,NA
"1193",7,3,17,2,1,4,0,0,2,1,1,970,161,0,"MIX2",1,2,159,160,NA,NA,NA,NA
"1194",7,3,18,2,1,8,0,0,1,1,0,1207,7,1,"MIX2",2,3,1,4,162,163,164,165
"1195",7,3,19,1,1,8,5,4,1,1,1,953,2,1,"MIX2",2,3,4,1,166,167,168,169
"1196",7,3,20,2,1,4,0,0,1,1,0,764,172,0,"MIX2",3,1,170,171,NA,NA,NA,NA
"1197",7,3,21,1,1,2,1,2,1,1,1,641,173,0,"MIX2",1,173,NA,NA,NA,NA,NA,NA
"1198",7,3,22,2,1,8,0,0,1,1,0,731,178,0,"MIX2",4,1,2,3,174,175,176,177
"1199",7,3,23,1,1,2,1,2,2,1,0,1009,2,1,"MIX2",2,179,NA,NA,NA,NA,NA,NA
"1200",7,3,24,2,1,2,0,0,1,1,0,1293,181,0,"MIX2",3,180,NA,NA,NA,NA,NA,NA
"1201",7,4,1,2,1,2,0,0,1,1,0,1540,183,0,"MIX2",2,182,NA,NA,NA,NA,NA,NA
"1202",7,4,2,1,1,4,4,1,2,0,1,1551,3,1,"MIX2",3,2,184,185,NA,NA,NA,NA
"1203",7,4,3,1,1,4,4,1,2,1,0,1114,4,1,"MIX2",1,4,186,187,NA,NA,NA,NA
"1204",7,4,4,2,1,2,0,0,1,1,0,753,7,1,"MIX2",1,188,NA,NA,NA,NA,NA,NA
"1205",7,4,5,2,1,4,0,0,1,1,0,1036,5,1,"MIX2",4,1,189,190,NA,NA,NA,NA
"1206",7,4,6,2,1,4,0,0,1,1,0,795,193,0,"MIX2",4,2,191,192,NA,NA,NA,NA
"1207",7,4,7,2,1,2,0,0,1,1,0,752,195,0,"MIX2",4,194,NA,NA,NA,NA,NA,NA
"1208",7,4,8,2,1,2,0,0,2,1,1,917,2,1,"MIX2",4,196,NA,NA,NA,NA,NA,NA
"1209",7,4,9,2,1,2,0,0,2,1,1,900,198,0,"MIX2",2,197,NA,NA,NA,NA,NA,NA
"1210",7,4,10,2,1,4,0,0,1,1,0,889,201,0,"MIX2",4,2,199,200,NA,NA,NA,NA
"1211",7,4,11,2,1,2,0,0,1,0,1,2265,2,1,"MIX2",4,202,NA,NA,NA,NA,NA,NA
"1212",7,4,12,2,1,2,0,0,2,1,1,834,204,0,"MIX2",4,203,NA,NA,NA,NA,NA,NA
"1213",7,4,13,1,1,8,5,4,1,1,1,1571,208,0,"MIX2",2,1,3,4,205,206,207,208
"1214",7,4,14,2,1,8,0,0,2,1,1,1255,4,1,"MIX2",1,4,3,2,209,210,211,212
"1215",7,4,15,1,1,8,6,3,1,1,1,1176,213,0,"MIX2",3,4,1,2,213,214,215,216
"1216",7,4,16,1,1,8,1,8,2,1,0,1101,2,1,"MIX2",4,1,3,2,217,218,219,220
"1217",7,4,17,1,1,4,4,1,1,1,1,857,221,0,"MIX2",2,4,221,222,NA,NA,NA,NA
"1218",7,4,18,2,1,8,0,0,2,1,1,2458,227,0,"MIX2",4,2,1,3,223,224,225,226
"1219",7,4,19,2,1,8,0,0,2,1,1,1131,1,1,"MIX2",3,2,1,4,228,229,230,231
"1220",7,4,20,1,1,4,4,1,2,1,0,1319,232,0,"MIX2",4,2,232,233,NA,NA,NA,NA
"1221",7,4,21,1,1,8,6,3,1,1,1,1092,2,1,"MIX2",1,2,4,3,234,235,236,237
"1222",7,4,22,1,1,8,7,2,2,1,0,987,2,1,"MIX2",3,2,4,1,238,239,240,241
"1223",7,4,23,1,1,8,4,5,1,1,1,1269,2,1,"MIX2",4,2,1,3,242,243,244,245
"1224",7,4,24,2,1,4,0,0,1,1,0,1098,248,0,"MIX2",3,4,246,247,NA,NA,NA,NA
"1225",7,5,1,2,1,8,0,0,2,1,1,1126,2,1,"MIX2",4,1,2,3,249,250,251,252
"1226",7,5,2,1,1,8,3,6,1,1,1,1210,1,1,"MIX2",2,1,4,3,253,254,255,256
"1227",7,5,3,2,1,8,0,0,2,1,1,1196,261,0,"MIX2",1,2,4,3,257,258,259,260
"1228",7,5,4,2,1,8,0,0,1,1,0,1183,266,0,"MIX2",3,4,1,2,262,263,264,265
"1229",7,5,5,1,1,4,2,3,1,1,1,1176,1,1,"MIX2",3,1,267,268,NA,NA,NA,NA
"1230",7,5,6,1,1,8,8,1,2,1,0,1499,3,1,"MIX2",3,2,4,1,269,270,271,272
"1231",7,5,7,2,1,4,0,0,1,1,0,1223,7,1,"MIX2",4,1,273,274,NA,NA,NA,NA
"1232",7,5,8,1,1,2,2,1,2,1,0,874,3,1,"MIX2",3,275,NA,NA,NA,NA,NA,NA
"1233",7,5,9,1,1,8,8,1,1,1,1,1112,4,1,"MIX2",3,4,1,2,276,277,278,279
"1234",7,5,10,2,1,4,0,0,2,0,0,1045,8,1,"MIX2",4,2,280,281,NA,NA,NA,NA
"1235",7,5,11,2,1,4,0,0,2,1,1,1924,1,1,"MIX2",3,4,282,283,NA,NA,NA,NA
"1236",7,5,12,1,1,2,1,2,1,1,1,859,284,0,"MIX2",2,284,NA,NA,NA,NA,NA,NA
"1237",7,5,13,2,1,4,0,0,1,1,0,1313,8,1,"MIX2",3,4,285,286,NA,NA,NA,NA
"1238",7,5,14,2,1,4,0,0,2,1,1,1046,1,1,"MIX2",2,4,287,288,NA,NA,NA,NA
"1239",7,5,15,2,1,4,0,0,1,1,0,1589,291,0,"MIX2",2,4,289,290,NA,NA,NA,NA
"1240",7,5,16,2,1,4,0,0,2,1,1,877,294,0,"MIX2",2,1,292,293,NA,NA,NA,NA
"1241",7,5,17,1,1,2,1,2,1,0,0,1166,4,1,"MIX2",4,295,NA,NA,NA,NA,NA,NA
"1242",7,5,18,2,1,4,0,0,1,1,0,1127,298,0,"MIX2",1,2,296,297,NA,NA,NA,NA
"1243",7,5,19,2,1,2,0,0,2,1,1,1182,300,0,"MIX2",3,299,NA,NA,NA,NA,NA,NA
"1244",7,5,20,2,1,8,0,0,2,1,1,1281,1,1,"MIX2",3,1,2,4,301,302,303,304
"1245",7,5,21,1,1,8,1,8,1,1,1,1505,307,0,"MIX2",4,3,1,2,305,306,307,308
"1246",7,5,22,1,1,8,2,7,1,1,1,1159,3,1,"MIX2",1,2,4,3,309,310,311,312
"1247",7,5,23,2,1,4,0,0,1,1,0,1056,315,0,"MIX2",4,2,313,314,NA,NA,NA,NA
"1248",7,5,24,2,1,8,0,0,1,1,0,922,7,1,"MIX2",2,1,4,3,316,317,318,319
"1249",7,6,1,1,1,8,3,6,1,1,1,1465,4,1,"MIX2",4,2,3,1,320,321,322,323
"1250",7,6,2,2,1,4,0,0,1,1,0,1415,326,0,"MIX2",2,4,324,325,NA,NA,NA,NA
"1251",7,6,3,1,1,8,8,1,1,1,1,802,328,0,"MIX2",3,4,1,2,327,328,329,330
"1252",7,6,4,1,1,2,2,1,2,1,0,1078,2,1,"MIX2",2,331,NA,NA,NA,NA,NA,NA
"1253",7,6,5,1,1,2,1,2,1,0,0,652,332,0,"MIX2",4,332,NA,NA,NA,NA,NA,NA
"1254",7,6,6,1,1,2,2,1,1,1,1,1063,1,1,"MIX2",1,333,NA,NA,NA,NA,NA,NA
"1255",7,6,7,2,1,2,0,0,2,1,1,1808,3,1,"MIX2",4,334,NA,NA,NA,NA,NA,NA
"1256",7,6,8,1,1,4,1,4,1,1,1,961,336,0,"MIX2",1,2,335,336,NA,NA,NA,NA
"1257",7,6,9,1,1,4,3,2,1,1,1,964,2,1,"MIX2",3,2,337,338,NA,NA,NA,NA
"1258",7,6,10,1,1,2,1,2,2,1,0,1248,2,1,"MIX2",2,339,NA,NA,NA,NA,NA,NA
"1259",7,6,11,2,1,8,0,0,1,1,0,1248,344,0,"MIX2",3,2,4,1,340,341,342,343
"1260",7,6,12,1,1,8,7,2,2,1,0,994,345,0,"MIX2",2,1,4,3,345,346,347,348
"1261",7,6,13,1,1,4,1,4,1,1,1,995,350,0,"MIX2",1,3,349,350,NA,NA,NA,NA
"1262",7,6,14,2,1,4,0,0,2,1,1,1269,353,0,"MIX2",1,2,351,352,NA,NA,NA,NA
"1263",7,6,15,2,1,8,0,0,1,1,0,1381,7,1,"MIX2",4,1,3,2,354,355,356,357
"1264",7,6,16,1,1,8,4,5,1,0,0,1296,3,1,"MIX2",4,2,3,1,358,359,360,361
"1265",7,6,17,1,1,4,3,2,1,1,1,1124,362,0,"MIX2",2,1,362,363,NA,NA,NA,NA
"1266",7,6,18,1,1,2,2,1,2,1,0,1276,4,1,"MIX2",4,364,NA,NA,NA,NA,NA,NA
"1267",7,6,19,1,1,8,6,3,1,1,1,1053,365,0,"MIX2",1,3,4,2,365,366,367,368
"1268",7,6,20,2,1,8,0,0,2,1,1,1078,1,1,"MIX2",4,1,3,2,369,370,371,372
"1269",7,6,21,2,1,2,0,0,2,1,1,974,374,0,"MIX2",2,373,NA,NA,NA,NA,NA,NA
"1270",7,6,22,1,1,8,8,1,2,1,0,1225,376,0,"MIX2",3,2,4,1,375,376,377,378
"1271",7,6,23,2,1,2,0,0,2,1,1,972,380,0,"MIX2",3,379,NA,NA,NA,NA,NA,NA
"1272",7,6,24,2,1,2,0,0,1,1,0,1384,382,0,"MIX2",1,381,NA,NA,NA,NA,NA,NA
"1273",7,7,1,1,1,4,1,4,1,1,1,924,384,0,"MIX2",1,3,383,384,NA,NA,NA,NA
"1274",7,7,2,1,1,8,7,2,1,0,0,2826,3,1,"MIX2",2,1,4,3,385,386,387,388
"1275",7,7,3,1,1,4,4,1,1,1,1,754,390,0,"MIX2",3,1,389,390,NA,NA,NA,NA
"1276",7,7,4,2,1,4,0,0,1,0,1,1694,4,1,"MIX2",4,1,391,392,NA,NA,NA,NA
"1277",7,7,5,1,1,2,2,1,2,1,0,894,3,1,"MIX2",3,393,NA,NA,NA,NA,NA,NA
"1278",7,7,6,2,1,2,0,0,1,1,0,1566,5,1,"MIX2",1,394,NA,NA,NA,NA,NA,NA
"1279",7,7,7,2,1,4,0,0,2,1,1,1063,1,1,"MIX2",2,4,395,396,NA,NA,NA,NA
"1280",7,7,8,2,1,4,0,0,1,1,0,1110,7,1,"MIX2",2,1,397,398,NA,NA,NA,NA
"1281",7,7,9,1,1,2,1,2,2,1,0,1646,1,1,"MIX2",1,399,NA,NA,NA,NA,NA,NA
"1282",7,7,10,2,1,8,0,0,1,1,0,1198,404,0,"MIX2",4,2,1,3,400,401,402,403
"1283",7,7,11,2,1,8,0,0,1,1,0,1137,409,0,"MIX2",1,3,4,2,405,406,407,408
"1284",7,7,12,2,1,4,0,0,2,1,1,1164,412,0,"MIX2",2,3,410,411,NA,NA,NA,NA
"1285",7,7,13,1,1,2,2,1,1,1,1,1106,4,1,"MIX2",4,413,NA,NA,NA,NA,NA,NA
"1286",7,7,14,2,1,2,0,0,1,1,0,1082,8,1,"MIX2",4,414,NA,NA,NA,NA,NA,NA
"1287",7,7,15,1,1,4,2,3,1,1,1,1047,2,1,"MIX2",3,2,415,416,NA,NA,NA,NA
"1288",7,7,16,1,1,8,7,2,2,1,0,1631,417,0,"MIX2",3,2,1,4,417,418,419,420
"1289",7,7,17,1,1,8,2,7,2,1,0,1262,424,0,"MIX2",1,4,2,3,421,422,423,424
"1290",7,7,18,2,1,4,0,0,2,1,1,1060,1,1,"MIX2",2,4,425,426,NA,NA,NA,NA
"1291",7,7,19,2,1,4,0,0,2,1,1,1267,2,1,"MIX2",3,4,427,428,NA,NA,NA,NA
"1292",7,7,20,2,1,8,0,0,2,1,1,1185,3,1,"MIX2",3,1,2,4,429,430,431,432
"1293",7,7,21,1,1,4,2,3,1,1,1,1451,1,1,"MIX2",1,3,433,434,NA,NA,NA,NA
"1294",7,7,22,1,1,8,4,5,1,1,1,947,3,1,"MIX2",2,4,1,3,435,436,437,438
"1295",7,7,23,2,1,4,0,0,1,1,0,1094,6,1,"MIX2",2,4,439,440,NA,NA,NA,NA
"1296",7,7,24,2,1,4,0,0,1,1,0,1347,443,0,"MIX2",4,1,441,442,NA,NA,NA,NA
"1297",7,8,1,1,1,4,1,4,2,1,0,1340,2,1,"MIX2",2,1,444,445,NA,NA,NA,NA
"1298",7,8,2,1,1,4,1,4,2,1,0,591,3,1,"MIX2",2,3,446,447,NA,NA,NA,NA
"1299",7,8,3,1,1,8,6,3,1,1,1,969,450,0,"MIX2",1,2,4,3,448,449,450,451
"1300",7,8,4,1,1,4,2,3,1,0,0,1355,2,1,"MIX2",2,1,452,453,NA,NA,NA,NA
"1301",7,8,5,2,1,8,0,0,1,1,0,1017,458,0,"MIX2",2,1,4,3,454,455,456,457
"1302",7,8,6,2,1,4,0,0,1,1,0,792,8,1,"MIX2",2,4,459,460,NA,NA,NA,NA
"1303",7,8,7,2,1,4,0,0,2,1,1,1954,4,1,"MIX2",4,3,461,462,NA,NA,NA,NA
"1304",7,8,8,1,1,2,2,1,2,1,0,1319,463,0,"MIX2",3,463,NA,NA,NA,NA,NA,NA
"1305",7,8,9,2,1,2,0,0,2,1,1,966,465,0,"MIX2",3,464,NA,NA,NA,NA,NA,NA
"1306",7,8,10,2,1,8,0,0,1,1,0,1155,6,1,"MIX2",2,4,3,1,466,467,468,469
"1307",7,8,11,2,1,8,0,0,1,1,0,1127,6,1,"MIX2",1,4,2,3,470,471,472,473
"1308",7,8,12,1,1,8,6,3,2,1,0,1085,477,0,"MIX2",1,2,4,3,474,475,476,477
"1309",7,8,13,2,1,8,0,0,2,1,1,1252,1,1,"MIX2",4,1,2,3,478,479,480,481
"1310",7,8,14,1,1,4,3,2,1,0,0,1178,4,1,"MIX2",4,2,482,483,NA,NA,NA,NA
"1311",7,8,15,2,1,2,0,0,2,1,1,1038,2,1,"MIX2",2,484,NA,NA,NA,NA,NA,NA
"1312",7,8,16,2,1,4,0,0,1,0,1,972,2,1,"MIX2",3,2,485,486,NA,NA,NA,NA
"1313",7,8,17,2,1,4,0,0,2,1,1,1053,4,1,"MIX2",4,3,487,488,NA,NA,NA,NA
"1314",7,8,18,1,1,2,1,2,2,1,0,1190,2,1,"MIX2",2,489,NA,NA,NA,NA,NA,NA
"1315",7,8,19,2,1,2,0,0,1,1,0,1978,8,1,"MIX2",4,490,NA,NA,NA,NA,NA,NA
"1316",7,8,20,2,1,8,0,0,1,1,0,989,495,0,"MIX2",2,3,4,1,491,492,493,494
"1317",7,8,21,1,1,4,4,1,2,1,0,398,3,1,"MIX2",4,3,496,497,NA,NA,NA,NA
"1318",7,8,22,1,1,2,1,2,2,1,0,546,4,1,"MIX2",4,498,NA,NA,NA,NA,NA,NA
"1319",7,8,23,1,1,8,3,6,2,1,0,720,499,0,"MIX2",3,4,2,1,499,500,501,502
"1320",7,8,24,2,1,8,0,0,1,1,0,919,507,0,"MIX2",2,1,3,4,503,504,505,506
"1321",7,9,1,2,1,2,0,0,1,1,0,939,509,0,"MIX2",2,508,NA,NA,NA,NA,NA,NA
"1322",7,9,2,1,1,8,6,3,1,1,1,488,513,0,"MIX2",2,1,4,3,510,511,512,513
"1323",7,9,3,2,1,8,0,0,1,1,0,647,518,0,"MIX2",4,3,1,2,514,515,516,517
"1324",7,9,4,2,1,8,0,0,1,1,0,559,523,0,"MIX2",4,3,1,2,519,520,521,522
"1325",7,9,5,2,1,4,0,0,1,1,0,738,8,1,"MIX2",4,1,524,525,NA,NA,NA,NA
"1326",7,9,6,1,1,8,7,2,1,1,1,903,3,1,"MIX2",3,2,1,4,526,527,528,529
"1327",7,9,7,1,1,2,2,1,2,1,0,518,4,1,"MIX2",4,530,NA,NA,NA,NA,NA,NA
"1328",7,9,8,2,1,8,0,0,1,1,0,709,535,0,"MIX2",3,4,1,2,531,532,533,534
"1329",7,9,9,1,1,8,2,7,1,1,1,1229,539,0,"MIX2",4,3,1,2,536,537,538,539
"1330",7,9,10,1,1,8,5,4,1,1,1,655,541,0,"MIX2",3,1,2,4,540,541,542,543
"1331",7,9,11,2,1,2,0,0,2,1,1,1241,545,0,"MIX2",1,544,NA,NA,NA,NA,NA,NA
"1332",7,9,12,2,1,8,0,0,1,1,0,1002,7,1,"MIX2",3,4,1,2,546,547,548,549
"1333",7,9,13,2,1,4,0,0,1,1,0,873,552,0,"MIX2",1,3,550,551,NA,NA,NA,NA
"1334",7,9,14,1,1,2,2,1,2,1,0,1259,553,0,"MIX2",1,553,NA,NA,NA,NA,NA,NA
"1335",7,9,15,1,1,4,2,3,1,1,1,834,2,1,"MIX2",2,1,554,555,NA,NA,NA,NA
"1336",7,9,16,2,1,8,0,0,1,1,0,899,7,1,"MIX2",2,3,4,1,556,557,558,559
"1337",7,9,17,1,1,4,3,2,1,0,0,2696,3,1,"MIX2",4,3,560,561,NA,NA,NA,NA
"1338",7,9,18,1,1,8,4,5,1,1,1,783,2,1,"MIX2",2,1,4,3,562,563,564,565
"1339",7,9,19,2,1,4,0,0,1,1,0,985,6,1,"MIX2",4,3,566,567,NA,NA,NA,NA
"1340",7,9,20,2,1,4,0,0,1,1,0,987,6,1,"MIX2",1,3,568,569,NA,NA,NA,NA
"1341",7,9,21,2,1,2,0,0,1,0,1,3607,571,0,"MIX2",1,570,NA,NA,NA,NA,NA,NA
"1342",7,9,22,2,1,8,0,0,1,0,1,953,1,1,"MIX2",1,2,4,3,572,573,574,575
"1343",7,9,23,2,1,8,0,0,1,1,0,869,7,1,"MIX2",3,4,2,1,576,577,578,579
"1344",7,9,24,1,1,4,4,1,1,1,1,923,3,1,"MIX2",2,3,580,581,NA,NA,NA,NA
"1345",8,2,1,1,1,2,1,2,2,1,0,771,68,0,"MIX2",4,68,NA,NA,NA,NA,NA,NA
"1346",8,2,2,2,1,2,0,0,1,1,0,648,70,0,"MIX2",4,69,NA,NA,NA,NA,NA,NA
"1347",8,2,3,1,1,8,8,1,2,1,0,1297,72,0,"MIX2",2,4,3,1,71,72,73,74
"1348",8,2,4,2,1,2,0,0,2,1,1,912,1,1,"MIX2",2,75,NA,NA,NA,NA,NA,NA
"1349",8,2,5,2,1,8,0,0,1,1,0,1229,6,1,"MIX2",2,4,3,1,76,77,78,79
"1350",8,2,6,1,1,2,2,1,2,0,1,736,80,0,"MIX2",2,80,NA,NA,NA,NA,NA,NA
"1351",8,2,7,1,1,4,1,4,2,1,0,1259,82,0,"MIX2",2,4,81,82,NA,NA,NA,NA
"1352",8,2,8,2,1,4,0,0,1,1,0,865,85,0,"MIX2",2,3,83,84,NA,NA,NA,NA
"1353",8,2,9,1,1,4,4,1,2,0,1,1240,86,0,"MIX2",3,4,86,87,NA,NA,NA,NA
"1354",8,2,10,2,1,8,0,0,2,1,1,1640,1,1,"MIX2",3,4,2,1,88,89,90,91
"1355",8,2,11,1,1,2,2,1,1,1,1,2571,1,1,"MIX2",1,92,NA,NA,NA,NA,NA,NA
"1356",8,2,12,2,1,4,0,0,2,1,1,1213,95,0,"MIX2",4,1,93,94,NA,NA,NA,NA
"1357",8,2,13,1,1,8,1,8,1,1,1,1359,96,0,"MIX2",2,3,1,4,96,97,98,99
"1358",8,2,14,1,1,8,4,5,2,1,0,1099,100,0,"MIX2",4,1,2,3,100,101,102,103
"1359",8,2,15,1,1,4,2,3,1,1,1,1591,4,1,"MIX2",1,4,104,105,NA,NA,NA,NA
"1360",8,2,16,2,1,2,0,0,2,1,1,907,107,0,"MIX2",2,106,NA,NA,NA,NA,NA,NA
"1361",8,2,17,1,1,8,6,3,1,1,1,1353,108,0,"MIX2",3,4,2,1,108,109,110,111
"1362",8,2,18,2,1,4,0,0,1,1,0,1051,114,0,"MIX2",3,4,112,113,NA,NA,NA,NA
"1363",8,2,19,2,1,8,0,0,2,1,1,1729,2,1,"MIX2",3,4,1,2,115,116,117,118
"1364",8,2,20,1,1,8,8,1,2,1,0,1920,119,0,"MIX2",4,3,2,1,119,120,121,122
"1365",8,2,21,2,1,4,0,0,1,1,0,795,125,0,"MIX2",3,4,123,124,NA,NA,NA,NA
"1366",8,2,22,2,1,4,0,0,2,1,1,1620,2,1,"MIX2",3,1,126,127,NA,NA,NA,NA
"1367",8,2,23,1,1,2,1,2,2,1,0,728,128,0,"MIX2",4,128,NA,NA,NA,NA,NA,NA
"1368",8,2,24,1,1,2,1,2,2,1,0,863,129,0,"MIX2",4,129,NA,NA,NA,NA,NA,NA
"1369",8,3,1,1,1,2,1,2,2,1,0,669,130,0,"MIX2",1,130,NA,NA,NA,NA,NA,NA
"1370",8,3,2,1,1,4,3,2,1,1,1,812,131,0,"MIX2",3,4,131,132,NA,NA,NA,NA
"1371",8,3,3,1,1,2,1,2,2,1,0,703,3,1,"MIX2",3,133,NA,NA,NA,NA,NA,NA
"1372",8,3,4,1,1,4,2,3,1,1,1,780,135,0,"MIX2",3,4,134,135,NA,NA,NA,NA
"1373",8,3,5,2,1,8,0,0,1,1,0,1535,8,1,"MIX2",3,1,4,2,136,137,138,139
"1374",8,3,6,2,1,4,0,0,1,1,0,1674,142,0,"MIX2",2,1,140,141,NA,NA,NA,NA
"1375",8,3,7,1,1,8,1,8,1,1,1,1658,146,0,"MIX2",3,4,1,2,143,144,145,146
"1376",8,3,8,1,1,4,2,3,2,0,1,1281,2,1,"MIX2",4,2,147,148,NA,NA,NA,NA
"1377",8,3,9,2,1,2,0,0,1,1,0,961,7,1,"MIX2",3,149,NA,NA,NA,NA,NA,NA
"1378",8,3,10,1,1,4,1,4,1,1,1,1268,150,0,"MIX2",2,3,150,151,NA,NA,NA,NA
"1379",8,3,11,1,1,2,1,2,2,1,0,709,152,0,"MIX2",2,152,NA,NA,NA,NA,NA,NA
"1380",8,3,12,2,1,2,0,0,1,1,0,557,6,1,"MIX2",4,153,NA,NA,NA,NA,NA,NA
"1381",8,3,13,2,1,4,0,0,1,1,0,1231,156,0,"MIX2",2,1,154,155,NA,NA,NA,NA
"1382",8,3,14,2,1,8,0,0,1,1,0,1152,5,1,"MIX2",3,2,4,1,157,158,159,160
"1383",8,3,15,2,1,2,0,0,2,1,1,1302,162,0,"MIX2",3,161,NA,NA,NA,NA,NA,NA
"1384",8,3,16,2,1,2,0,0,1,1,0,869,164,0,"MIX2",2,163,NA,NA,NA,NA,NA,NA
"1385",8,3,17,1,1,8,3,6,1,1,1,885,2,1,"MIX2",1,3,4,2,165,166,167,168
"1386",8,3,18,1,1,2,1,2,2,1,0,789,4,1,"MIX2",4,169,NA,NA,NA,NA,NA,NA
"1387",8,3,19,1,1,2,1,2,2,1,0,585,170,0,"MIX2",2,170,NA,NA,NA,NA,NA,NA
"1388",8,3,20,1,1,2,2,1,2,1,0,565,171,0,"MIX2",1,171,NA,NA,NA,NA,NA,NA
"1389",8,3,21,2,1,8,0,0,1,0,1,1344,1,1,"MIX2",3,4,1,2,172,173,174,175
"1390",8,3,22,1,1,2,1,2,1,1,1,846,176,0,"MIX2",3,176,NA,NA,NA,NA,NA,NA
"1391",8,3,23,2,1,8,0,0,2,1,1,720,181,0,"MIX2",3,4,1,2,177,178,179,180
"1392",8,3,24,2,1,4,0,0,2,1,1,938,184,0,"MIX2",1,4,182,183,NA,NA,NA,NA
"1393",8,4,1,2,1,8,0,0,1,1,0,612,8,1,"MIX2",2,1,4,3,185,186,187,188
"1394",8,4,2,1,1,8,6,3,1,1,1,910,189,0,"MIX2",1,4,2,3,189,190,191,192
"1395",8,4,3,2,1,4,0,0,1,1,0,978,195,0,"MIX2",2,4,193,194,NA,NA,NA,NA
"1396",8,4,4,1,1,4,4,1,1,1,1,756,4,1,"MIX2",3,4,196,197,NA,NA,NA,NA
"1397",8,4,5,1,1,8,2,7,1,0,0,1625,3,1,"MIX2",1,2,3,4,198,199,200,201
"1398",8,4,6,2,1,2,0,0,1,1,0,683,6,1,"MIX2",2,202,NA,NA,NA,NA,NA,NA
"1399",8,4,7,2,1,8,0,0,2,1,1,1265,207,0,"MIX2",2,4,1,3,203,204,205,206
"1400",8,4,8,2,1,8,0,0,2,1,1,976,1,1,"MIX2",1,2,4,3,208,209,210,211
"1401",8,4,9,2,1,2,0,0,2,1,1,1789,213,0,"MIX2",4,212,NA,NA,NA,NA,NA,NA
"1402",8,4,10,2,1,4,0,0,1,1,0,941,216,0,"MIX2",1,2,214,215,NA,NA,NA,NA
"1403",8,4,11,2,1,4,0,0,2,1,1,1569,219,0,"MIX2",4,1,217,218,NA,NA,NA,NA
"1404",8,4,12,1,1,8,8,1,1,1,1,677,220,0,"MIX2",4,3,1,2,220,221,222,223
"1405",8,4,13,1,1,8,3,6,2,1,0,1083,226,0,"MIX2",4,2,3,1,224,225,226,227
"1406",8,4,14,2,1,8,0,0,2,1,1,755,1,1,"MIX2",4,3,2,1,228,229,230,231
"1407",8,4,15,1,1,4,4,1,2,1,0,1229,4,1,"MIX2",4,3,232,233,NA,NA,NA,NA
"1408",8,4,16,1,1,2,2,1,1,0,0,880,3,1,"MIX2",3,234,NA,NA,NA,NA,NA,NA
"1409",8,4,17,1,1,8,5,4,1,1,1,942,4,1,"MIX2",2,3,1,4,235,236,237,238
"1410",8,4,18,1,1,2,2,1,1,0,0,445,239,0,"MIX2",2,239,NA,NA,NA,NA,NA,NA
"1411",8,4,19,1,1,2,2,1,2,1,0,782,240,0,"MIX2",3,240,NA,NA,NA,NA,NA,NA
"1412",8,4,20,1,1,4,1,4,2,0,1,1368,4,1,"MIX2",1,4,241,242,NA,NA,NA,NA
"1413",8,4,21,1,1,2,1,2,2,1,0,1077,2,1,"MIX2",2,243,NA,NA,NA,NA,NA,NA
"1414",8,4,22,1,1,4,3,2,1,1,1,611,4,1,"MIX2",3,4,244,245,NA,NA,NA,NA
"1415",8,4,23,2,1,4,0,0,1,1,0,819,5,1,"MIX2",4,3,246,247,NA,NA,NA,NA
"1416",8,4,24,2,1,2,0,0,1,1,0,950,249,0,"MIX2",4,248,NA,NA,NA,NA,NA,NA
"1417",8,5,1,2,1,8,0,0,2,0,0,1122,7,1,"MIX2",3,4,1,2,250,251,252,253
"1418",8,5,2,2,1,2,0,0,2,1,1,1113,3,1,"MIX2",1,254,NA,NA,NA,NA,NA,NA
"1419",8,5,3,2,1,2,0,0,1,1,0,767,256,0,"MIX2",2,255,NA,NA,NA,NA,NA,NA
"1420",8,5,4,2,1,4,0,0,2,1,1,1241,259,0,"MIX2",3,2,257,258,NA,NA,NA,NA
"1421",8,5,5,2,1,8,0,0,1,1,0,1065,264,0,"MIX2",1,2,4,3,260,261,262,263
"1422",8,5,6,2,1,4,0,0,1,1,0,823,5,1,"MIX2",4,2,265,266,NA,NA,NA,NA
"1423",8,5,7,1,1,8,3,6,1,0,0,809,270,0,"MIX2",3,1,2,4,267,268,269,270
