,Subnum,Block,Trial,Old,testcdisgard,Setsize,Serpos,Lag,Response,Correctness,Side,RT,WhichProbe,Stimkind,FileCondi,prob1,prob2,prob3,prob4,prob5,prob6,prob7,prob8
1,1,2,1,1,1,8,3,6,2,0,1,1139,79,0,MIX,6,7,1,3,77,78,79,80
2,1,2,2,2,1,4,0,0,2,1,1,1045,83,0,MIX,7,6,81,82,NA,NA,NA,NA
3,1,2,3,1,1,8,1,8,2,1,0,1299,85,0,MIX,4,2,7,1,84,85,86,87
4,1,2,4,2,1,4,0,0,1,0,1,2521,1,1,MIX,8,1,88,89,NA,NA,NA,NA
5,1,2,5,2,1,4,0,0,2,1,1,500,7,1,MIX,3,1,90,91,NA,NA,NA,NA
6,1,2,6,1,1,8,8,1,2,0,1,1103,2,1,MIX,8,7,1,2,92,93,94,95
7,1,2,7,2,1,8,0,0,1,1,0,1181,15,1,MIX,4,8,7,2,96,97,98,99
8,1,2,8,2,1,8,0,0,2,0,0,775,104,0,MIX,5,1,8,2,100,101,102,103
9,1,2,9,2,1,8,0,0,2,1,1,465,7,1,MIX,8,4,2,3,105,106,107,108
10,1,2,10,1,1,2,2,1,1,0,0,1379,8,1,MIX,8,109,NA,NA,NA,NA,NA,NA
11,1,2,11,2,1,4,0,0,1,0,1,1316,2,1,MIX,6,2,110,111,NA,NA,NA,NA
12,1,2,12,2,1,4,0,0,2,0,0,959,11,1,MIX,3,5,112,113,NA,NA,NA,NA
13,1,2,13,1,1,2,2,1,2,1,0,2740,114,0,MIX,5,114,NA,NA,NA,NA,NA,NA
14,1,2,14,1,1,4,3,2,2,0,1,1047,115,0,MIX,2,4,115,116,NA,NA,NA,NA
15,1,2,15,2,1,2,0,0,1,1,0,1152,118,0,MIX,8,117,NA,NA,NA,NA,NA,NA
16,1,2,16,1,1,2,1,2,2,1,0,1645,119,0,MIX,7,119,NA,NA,NA,NA,NA,NA
17,1,2,17,2,1,4,0,0,1,1,0,1019,122,0,MIX,3,6,120,121,NA,NA,NA,NA
18,1,2,18,2,1,2,0,0,1,1,0,693,15,1,MIX,8,123,NA,NA,NA,NA,NA,NA
19,1,2,19,2,1,2,0,0,1,1,0,790,125,0,MIX,3,124,NA,NA,NA,NA,NA,NA
20,1,2,20,2,1,8,0,0,1,0,1,609,8,1,MIX,2,7,6,3,126,127,128,129
21,1,2,21,2,1,4,0,0,1,1,0,770,12,1,MIX,6,5,130,131,NA,NA,NA,NA
22,1,2,22,1,1,8,8,1,2,0,1,2510,133,0,MIX,1,3,8,2,132,133,134,135
23,1,2,23,2,1,4,0,0,1,1,0,1147,138,0,MIX,6,4,136,137,NA,NA,NA,NA
24,1,2,24,2,1,2,0,0,2,0,0,2952,140,0,MIX,4,139,NA,NA,NA,NA,NA,NA
25,1,3,1,1,1,4,4,1,1,1,1,1368,1,1,MIX,1,7,141,142,NA,NA,NA,NA
26,1,3,2,2,1,4,0,0,2,0,0,722,145,0,MIX,2,8,143,144,NA,NA,NA,NA
27,1,3,3,2,1,4,0,0,2,0,0,1134,148,0,MIX,6,5,146,147,NA,NA,NA,NA
28,1,3,4,1,1,2,1,2,2,1,0,972,149,0,MIX,1,149,NA,NA,NA,NA,NA,NA
29,1,3,5,2,1,4,0,0,1,0,1,2091,152,0,MIX,4,1,150,151,NA,NA,NA,NA
30,1,3,6,2,1,8,0,0,2,0,0,1786,14,1,MIX,1,6,3,5,153,154,155,156
31,1,3,7,2,1,4,0,0,1,0,1,1523,2,1,MIX,7,2,157,158,NA,NA,NA,NA
32,1,3,8,1,1,8,3,6,2,0,1,2111,4,1,MIX,4,6,7,3,159,160,161,162
33,1,3,9,2,1,2,0,0,1,0,1,1116,1,1,MIX,7,163,NA,NA,NA,NA,NA,NA
34,1,3,10,2,1,4,0,0,2,1,1,744,166,0,MIX,2,7,164,165,NA,NA,NA,NA
35,1,3,11,2,1,8,0,0,2,1,1,772,171,0,MIX,8,5,3,7,167,168,169,170
36,1,3,12,1,1,4,3,2,2,0,1,605,3,1,MIX,3,5,172,173,NA,NA,NA,NA
37,1,3,13,1,1,4,4,1,1,0,0,1252,4,1,MIX,4,6,174,175,NA,NA,NA,NA
38,1,3,14,2,1,4,0,0,2,1,1,707,4,1,MIX,7,3,176,177,NA,NA,NA,NA
39,1,3,15,1,1,8,5,4,1,0,0,888,1,1,MIX,1,5,3,7,178,179,180,181
40,1,3,16,2,1,4,0,0,2,1,1,1069,184,0,MIX,3,2,182,183,NA,NA,NA,NA
41,1,3,17,2,1,8,0,0,2,1,1,1019,189,0,MIX,7,6,5,8,185,186,187,188
42,1,3,18,1,1,4,3,2,1,0,0,867,4,1,MIX,4,8,190,191,NA,NA,NA,NA
43,1,3,19,1,1,8,6,3,1,1,1,859,3,1,MIX,5,2,3,4,192,193,194,195
44,1,3,20,2,1,4,0,0,1,0,1,721,1,1,MIX,8,3,196,197,NA,NA,NA,NA
45,1,3,21,2,1,2,0,0,1,0,1,655,3,1,MIX,1,198,NA,NA,NA,NA,NA,NA
46,1,3,22,2,1,8,0,0,2,1,1,501,203,0,MIX,8,1,2,6,199,200,201,202
47,1,3,23,2,1,2,0,0,2,1,1,524,205,0,MIX,3,204,NA,NA,NA,NA,NA,NA
48,1,3,24,2,1,8,0,0,2,0,0,562,16,1,MIX,2,1,4,5,206,207,208,209
49,1,4,1,1,1,8,1,8,2,0,1,726,2,1,MIX,2,3,8,7,210,211,212,213
50,1,4,2,2,1,4,0,0,2,0,0,2152,12,1,MIX,2,1,214,215,NA,NA,NA,NA
51,1,4,3,2,1,8,0,0,1,1,0,395,220,0,MIX,6,8,7,1,216,217,218,219
52,1,4,4,1,1,8,6,3,1,0,0,1029,2,1,MIX,2,4,7,6,221,222,223,224
53,1,4,5,1,1,2,2,1,1,1,1,768,8,1,MIX,8,225,NA,NA,NA,NA,NA,NA
54,1,4,6,1,1,2,2,1,1,1,1,525,7,1,MIX,7,226,NA,NA,NA,NA,NA,NA
55,1,4,7,2,1,2,0,0,2,0,0,1123,15,1,MIX,7,227,NA,NA,NA,NA,NA,NA
56,1,4,8,2,1,8,0,0,1,1,0,568,232,0,MIX,6,4,3,5,228,229,230,231
57,1,4,9,1,1,4,1,4,2,0,1,329,234,0,MIX,8,5,233,234,NA,NA,NA,NA
58,1,4,10,1,1,8,2,7,1,1,1,294,5,1,MIX,4,1,5,6,235,236,237,238
59,1,4,11,2,1,8,0,0,2,1,1,716,243,0,MIX,5,8,4,1,239,240,241,242
60,1,4,12,2,1,8,0,0,2,0,0,838,248,0,MIX,6,7,2,4,244,245,246,247
61,1,4,13,1,1,2,1,2,2,1,0,672,249,0,MIX,7,249,NA,NA,NA,NA,NA,NA
62,1,4,14,1,1,2,2,1,1,0,0,865,4,1,MIX,4,250,NA,NA,NA,NA,NA,NA
63,1,4,15,1,1,2,1,2,2,1,0,650,251,0,MIX,2,251,NA,NA,NA,NA,NA,NA
64,1,4,16,2,1,2,0,0,1,0,1,538,253,0,MIX,6,252,NA,NA,NA,NA,NA,NA
65,1,4,17,1,1,2,2,1,2,1,0,798,4,1,MIX,4,254,NA,NA,NA,NA,NA,NA
66,1,4,18,2,1,8,0,0,2,0,0,782,14,1,MIX,7,3,5,8,255,256,257,258
67,1,4,19,1,1,4,4,1,1,0,0,319,260,0,MIX,1,2,259,260,NA,NA,NA,NA
68,1,4,20,2,1,4,0,0,1,1,0,539,263,0,MIX,1,7,261,262,NA,NA,NA,NA
69,1,4,21,2,1,8,0,0,1,0,1,759,268,0,MIX,2,7,1,6,264,265,266,267
70,1,4,22,1,1,2,1,2,2,0,1,748,269,0,MIX,7,269,NA,NA,NA,NA,NA,NA
71,1,4,23,1,1,8,4,5,1,0,0,879,271,0,MIX,1,7,6,3,270,271,272,273
72,1,4,24,1,1,2,1,2,2,1,0,1105,274,0,MIX,6,274,NA,NA,NA,NA,NA,NA
73,1,5,1,2,1,4,0,0,1,0,1,516,277,0,MIX,1,4,275,276,NA,NA,NA,NA
74,1,5,2,2,1,2,0,0,2,1,1,1065,279,0,MIX,2,278,NA,NA,NA,NA,NA,NA
75,1,5,3,1,1,2,2,1,1,0,0,810,5,1,MIX,5,280,NA,NA,NA,NA,NA,NA
76,1,5,4,1,1,2,2,1,2,1,0,413,281,0,MIX,4,281,NA,NA,NA,NA,NA,NA
77,1,5,5,2,1,4,0,0,2,1,1,661,2,1,MIX,3,4,282,283,NA,NA,NA,NA
78,1,5,6,2,1,2,0,0,2,1,1,755,285,0,MIX,7,284,NA,NA,NA,NA,NA,NA
79,1,5,7,2,1,4,0,0,2,0,0,853,288,0,MIX,3,1,286,287,NA,NA,NA,NA
80,1,5,8,2,1,8,0,0,2,1,1,717,7,1,MIX,1,4,3,5,289,290,291,292
81,1,5,9,1,1,2,1,2,1,1,1,1491,8,1,MIX,8,293,NA,NA,NA,NA,NA,NA
82,1,5,10,1,1,4,3,2,2,0,1,825,7,1,MIX,7,3,294,295,NA,NA,NA,NA
83,1,5,11,2,1,4,0,0,2,1,1,416,298,0,MIX,7,1,296,297,NA,NA,NA,NA
84,1,5,12,1,1,4,2,3,2,0,1,1686,299,0,MIX,4,2,299,300,NA,NA,NA,NA
85,1,5,13,1,1,2,1,2,1,1,1,357,301,0,MIX,5,301,NA,NA,NA,NA,NA,NA
86,1,5,14,1,1,4,2,3,1,1,1,295,302,0,MIX,8,7,302,303,NA,NA,NA,NA
87,1,5,15,1,1,8,6,3,1,1,1,506,306,0,MIX,6,3,5,4,304,305,306,307
88,1,5,16,2,1,8,0,0,2,1,1,602,1,1,MIX,8,6,1,2,308,309,310,311
89,1,5,17,1,1,2,2,1,2,1,0,453,312,0,MIX,4,312,NA,NA,NA,NA,NA,NA
90,1,5,18,1,1,2,2,1,2,1,0,343,4,1,MIX,4,313,NA,NA,NA,NA,NA,NA
91,1,5,19,2,1,8,0,0,1,1,0,577,318,0,MIX,6,2,1,8,314,315,316,317
92,1,5,20,2,1,8,0,0,2,1,1,641,323,0,MIX,3,6,1,5,319,320,321,322
93,1,5,21,1,1,2,1,2,2,1,0,787,1,1,MIX,1,324,NA,NA,NA,NA,NA,NA
94,1,5,22,1,1,2,2,1,2,0,1,415,2,1,MIX,2,325,NA,NA,NA,NA,NA,NA
95,1,5,23,2,1,4,0,0,2,1,1,597,3,1,MIX,3,2,326,327,NA,NA,NA,NA
96,1,5,24,1,1,4,3,2,1,0,0,558,328,0,MIX,3,1,328,329,NA,NA,NA,NA
97,1,6,1,1,1,2,2,1,1,1,1,437,330,0,MIX,4,330,NA,NA,NA,NA,NA,NA
98,1,6,2,1,1,8,4,5,2,1,0,870,331,0,MIX,5,6,3,8,331,332,333,334
99,1,6,3,1,1,2,1,2,2,0,1,773,7,1,MIX,7,335,NA,NA,NA,NA,NA,NA
100,1,6,4,2,1,2,0,0,1,1,0,538,9,1,MIX,3,336,NA,NA,NA,NA,NA,NA
101,1,6,5,1,1,2,1,2,1,1,1,361,7,1,MIX,7,337,NA,NA,NA,NA,NA,NA
102,1,6,6,2,1,4,0,0,2,1,1,507,340,0,MIX,4,1,338,339,NA,NA,NA,NA
103,1,6,7,2,1,2,0,0,2,1,1,531,5,1,MIX,8,341,NA,NA,NA,NA,NA,NA
104,1,6,8,1,1,4,3,2,2,1,0,630,342,0,MIX,3,1,342,343,NA,NA,NA,NA
105,1,6,9,1,1,2,1,2,1,1,1,841,7,1,MIX,7,344,NA,NA,NA,NA,NA,NA
106,1,6,10,2,1,2,0,0,2,1,1,650,346,0,MIX,2,345,NA,NA,NA,NA,NA,NA
107,1,6,11,2,1,2,0,0,2,1,1,554,348,0,MIX,3,347,NA,NA,NA,NA,NA,NA
108,1,6,12,2,1,4,0,0,1,1,0,460,351,0,MIX,2,8,349,350,NA,NA,NA,NA
109,1,6,13,2,1,2,0,0,1,0,1,686,4,1,MIX,2,352,NA,NA,NA,NA,NA,NA
110,1,6,14,2,1,8,0,0,1,1,0,1491,357,0,MIX,3,2,6,7,353,354,355,356
111,1,6,15,2,1,4,0,0,2,1,1,567,6,1,MIX,4,8,358,359,NA,NA,NA,NA
112,1,6,16,1,1,4,3,2,2,0,1,1217,6,1,MIX,6,7,360,361,NA,NA,NA,NA
113,1,6,17,1,1,8,2,7,2,1,0,546,363,0,MIX,2,1,6,7,362,363,364,365
114,1,6,18,1,1,8,4,5,2,1,0,637,368,0,MIX,7,6,1,8,366,367,368,369
115,1,6,19,2,1,8,0,0,2,1,1,901,2,1,MIX,5,8,7,3,370,371,372,373
116,1,6,20,1,1,8,3,6,1,1,1,723,375,0,MIX,8,4,6,7,374,375,376,377
117,1,6,21,2,1,2,0,0,2,1,1,570,3,1,MIX,5,378,NA,NA,NA,NA,NA,NA
118,1,6,22,2,1,2,0,0,1,0,1,999,3,1,MIX,3,379,NA,NA,NA,NA,NA,NA
119,1,6,23,2,1,4,0,0,1,1,0,576,14,1,MIX,4,2,380,381,NA,NA,NA,NA
120,1,6,24,1,1,4,2,3,1,1,1,1776,383,0,MIX,1,7,382,383,NA,NA,NA,NA
121,1,7,1,1,1,8,4,5,1,0,0,645,386,0,MIX,5,6,7,8,384,385,386,387
122,1,7,2,1,1,8,6,3,2,1,0,741,5,1,MIX,4,5,8,1,388,389,390,391
123,1,7,3,2,1,8,0,0,1,1,0,656,396,0,MIX,5,8,1,4,392,393,394,395
124,1,7,4,2,1,2,0,0,2,1,1,913,7,1,MIX,6,397,NA,NA,NA,NA,NA,NA
125,1,7,5,2,1,2,0,0,1,1,0,455,399,0,MIX,1,398,NA,NA,NA,NA,NA,NA
126,1,7,6,1,1,4,2,3,1,1,1,1628,1,1,MIX,4,1,400,401,NA,NA,NA,NA
127,1,7,7,2,1,8,0,0,2,1,1,987,406,0,MIX,5,7,8,4,402,403,404,405
128,1,7,8,2,1,2,0,0,1,0,1,768,4,1,MIX,8,407,NA,NA,NA,NA,NA,NA
129,1,7,9,2,1,8,0,0,1,0,1,944,3,1,MIX,6,7,2,1,408,409,410,411
130,1,7,10,2,1,8,0,0,2,1,1,666,416,0,MIX,4,1,7,8,412,413,414,415
131,1,7,11,2,1,4,0,0,1,1,0,855,419,0,MIX,4,1,417,418,NA,NA,NA,NA
132,1,7,12,2,1,8,0,0,1,0,1,727,8,1,MIX,2,4,6,7,420,421,422,423
133,1,7,13,2,1,2,0,0,1,1,0,622,14,1,MIX,1,424,NA,NA,NA,NA,NA,NA
134,1,7,14,2,1,4,0,0,2,1,1,1221,427,0,MIX,2,3,425,426,NA,NA,NA,NA
135,1,7,15,1,1,4,1,4,1,1,1,1141,428,0,MIX,1,4,428,429,NA,NA,NA,NA
136,1,7,16,2,1,8,0,0,1,1,0,1143,16,1,MIX,2,6,8,7,430,431,432,433
137,1,7,17,2,1,8,0,0,1,1,0,1027,438,0,MIX,4,1,2,5,434,435,436,437
138,1,7,18,2,1,4,0,0,1,1,0,955,441,0,MIX,2,5,439,440,NA,NA,NA,NA
139,1,7,19,2,1,2,0,0,2,1,1,969,6,1,MIX,7,442,NA,NA,NA,NA,NA,NA
140,1,7,20,1,1,8,5,4,2,0,1,1790,443,0,MIX,6,7,8,2,443,444,445,446
141,1,7,21,2,1,2,0,0,2,0,0,2089,448,0,MIX,8,447,NA,NA,NA,NA,NA,NA
142,1,7,22,1,1,2,1,2,1,1,1,986,4,1,MIX,4,449,NA,NA,NA,NA,NA,NA
143,1,7,23,2,1,8,0,0,1,1,0,1059,454,0,MIX,5,1,6,3,450,451,452,453
144,1,7,24,2,1,4,0,0,1,1,0,937,457,0,MIX,5,6,455,456,NA,NA,NA,NA
145,1,8,1,2,1,2,0,0,2,1,1,863,5,1,MIX,2,458,NA,NA,NA,NA,NA,NA
146,1,8,2,1,1,8,3,6,2,1,0,686,461,0,MIX,5,4,3,2,459,460,461,462
147,1,8,3,1,1,2,2,1,2,0,1,550,463,0,MIX,6,463,NA,NA,NA,NA,NA,NA
148,1,8,4,1,1,8,7,2,2,1,0,466,467,0,MIX,5,7,4,8,464,465,466,467
149,1,8,5,2,1,8,0,0,2,1,1,841,472,0,MIX,5,8,1,2,468,469,470,471
150,1,8,6,2,1,8,0,0,2,1,1,735,2,1,MIX,2,8,7,1,473,474,475,476
151,1,8,7,2,1,4,0,0,1,1,0,930,479,0,MIX,8,2,477,478,NA,NA,NA,NA
152,1,8,8,2,1,8,0,0,1,1,0,855,484,0,MIX,2,3,6,1,480,481,482,483
153,1,8,9,2,1,2,0,0,1,1,0,704,13,1,MIX,6,485,NA,NA,NA,NA,NA,NA
154,1,8,10,2,1,2,0,0,2,1,1,1111,487,0,MIX,3,486,NA,NA,NA,NA,NA,NA
155,1,8,11,2,1,4,0,0,1,1,0,1172,12,1,MIX,1,2,488,489,NA,NA,NA,NA
156,1,8,12,2,1,8,0,0,1,1,0,1071,494,0,MIX,2,6,5,7,490,491,492,493
157,1,8,13,2,1,2,0,0,2,1,1,752,4,1,MIX,7,495,NA,NA,NA,NA,NA,NA
158,1,8,14,2,1,4,0,0,1,1,0,1154,9,1,MIX,2,1,496,497,NA,NA,NA,NA
159,1,8,15,2,1,8,0,0,1,1,0,702,502,0,MIX,3,1,7,8,498,499,500,501
160,1,8,16,2,1,2,0,0,1,1,0,1269,12,1,MIX,6,503,NA,NA,NA,NA,NA,NA
161,1,8,17,2,1,8,0,0,1,1,0,1092,14,1,MIX,6,2,7,5,504,505,506,507
162,1,8,18,2,1,4,0,0,2,1,1,992,8,1,MIX,1,2,508,509,NA,NA,NA,NA
163,1,8,19,2,1,4,0,0,2,1,1,817,6,1,MIX,2,5,510,511,NA,NA,NA,NA
164,1,8,20,2,1,2,0,0,2,1,1,716,1,1,MIX,8,512,NA,NA,NA,NA,NA,NA
165,1,8,21,1,1,4,3,2,1,1,1,871,513,0,MIX,6,7,513,514,NA,NA,NA,NA
166,1,8,22,1,1,2,1,2,2,1,0,944,5,1,MIX,5,515,NA,NA,NA,NA,NA,NA
167,1,8,23,2,1,4,0,0,2,1,1,953,518,0,MIX,2,8,516,517,NA,NA,NA,NA
168,1,8,24,1,1,8,1,8,1,1,1,1061,1,1,MIX,1,4,7,3,519,520,521,522
169,1,9,1,1,1,4,3,2,2,1,0,910,523,0,MIX,5,8,523,524,NA,NA,NA,NA
170,1,9,2,2,1,4,0,0,1,1,0,706,527,0,MIX,1,8,525,526,NA,NA,NA,NA
171,1,9,3,1,1,8,5,4,2,1,0,646,3,1,MIX,6,4,3,8,528,529,530,531
172,1,9,4,2,1,8,0,0,2,1,1,1503,536,0,MIX,5,1,6,2,532,533,534,535
173,1,9,5,2,1,2,0,0,1,1,0,1135,12,1,MIX,5,537,NA,NA,NA,NA,NA,NA
174,1,9,6,2,1,8,0,0,2,0,0,1139,9,1,MIX,1,8,6,4,538,539,540,541
175,1,9,7,1,1,2,1,2,2,1,0,570,542,0,MIX,2,542,NA,NA,NA,NA,NA,NA
176,1,9,8,1,1,8,8,1,1,1,1,900,5,1,MIX,5,3,2,6,543,544,545,546
177,1,9,9,2,1,8,0,0,2,1,1,627,551,0,MIX,1,8,3,2,547,548,549,550
178,1,9,10,2,1,2,0,0,1,1,0,1053,15,1,MIX,1,552,NA,NA,NA,NA,NA,NA
179,1,9,11,2,1,4,0,0,1,1,0,908,16,1,MIX,6,1,553,554,NA,NA,NA,NA
180,1,9,12,1,1,4,2,3,1,1,1,994,6,1,MIX,6,5,555,556,NA,NA,NA,NA
181,1,9,13,1,1,2,2,1,2,1,0,910,557,0,MIX,4,557,NA,NA,NA,NA,NA,NA
182,1,9,14,1,1,4,3,2,1,1,1,891,558,0,MIX,4,8,558,559,NA,NA,NA,NA
183,1,9,15,1,1,8,1,8,2,1,0,905,562,0,MIX,6,4,1,7,560,561,562,563
184,1,9,16,2,1,4,0,0,1,0,1,686,7,1,MIX,3,6,564,565,NA,NA,NA,NA
185,1,9,17,2,1,2,0,0,2,1,1,878,567,0,MIX,5,566,NA,NA,NA,NA,NA,NA
186,1,9,18,1,1,4,1,4,2,1,0,812,4,1,MIX,3,4,568,569,NA,NA,NA,NA
187,1,9,19,1,1,8,2,7,2,1,0,1115,6,1,MIX,8,6,3,1,570,571,572,573
188,1,9,20,1,1,2,2,1,1,1,1,930,5,1,MIX,5,574,NA,NA,NA,NA,NA,NA
189,1,9,21,1,1,2,1,2,1,1,1,1745,575,0,MIX,1,575,NA,NA,NA,NA,NA,NA
190,1,9,22,2,1,2,0,0,1,1,0,1175,16,1,MIX,2,576,NA,NA,NA,NA,NA,NA
191,1,9,23,1,1,2,2,1,1,0,0,404,1,1,MIX,1,577,NA,NA,NA,NA,NA,NA
192,1,9,24,2,1,2,0,0,2,1,1,1071,579,0,MIX,3,578,NA,NA,NA,NA,NA,NA
193,3,2,1,2,1,4,0,0,1,1,0,701,11,1,MIX,5,2,76,77,NA,NA,NA,NA
194,3,2,2,1,1,2,1,2,2,1,0,836,78,0,MIX,1,78,NA,NA,NA,NA,NA,NA
195,3,2,3,2,1,4,0,0,2,1,1,522,81,0,MIX,4,6,79,80,NA,NA,NA,NA
196,3,2,4,2,1,8,0,0,1,1,0,519,86,0,MIX,3,8,6,4,82,83,84,85
197,3,2,5,2,1,4,0,0,1,1,0,458,11,1,MIX,1,6,87,88,NA,NA,NA,NA
198,3,2,6,1,1,8,1,8,1,1,1,649,90,0,MIX,7,1,5,4,89,90,91,92
199,3,2,7,1,1,8,5,4,1,1,1,593,93,0,MIX,4,6,2,7,93,94,95,96
200,3,2,8,1,1,4,2,3,1,1,1,513,8,1,MIX,1,8,97,98,NA,NA,NA,NA
201,3,2,9,1,1,4,2,3,2,1,0,852,7,1,MIX,8,7,99,100,NA,NA,NA,NA
202,3,2,10,2,1,2,0,0,1,1,0,470,14,1,MIX,1,101,NA,NA,NA,NA,NA,NA
203,3,2,11,1,1,2,2,1,1,1,1,407,7,1,MIX,7,102,NA,NA,NA,NA,NA,NA
204,3,2,12,1,1,4,4,1,2,1,0,526,103,0,MIX,2,8,103,104,NA,NA,NA,NA
205,3,2,13,2,1,8,0,0,1,1,0,843,11,1,MIX,2,3,4,8,105,106,107,108
206,3,2,14,2,1,2,0,0,2,0,0,1565,11,1,MIX,5,109,NA,NA,NA,NA,NA,NA
207,3,2,15,2,1,4,0,0,1,1,0,502,16,1,MIX,4,5,110,111,NA,NA,NA,NA
208,3,2,16,2,1,4,0,0,2,1,1,554,8,1,MIX,6,7,112,113,NA,NA,NA,NA
209,3,2,17,2,1,8,0,0,1,1,0,630,13,1,MIX,2,6,5,3,114,115,116,117
210,3,2,18,1,1,2,1,2,2,1,0,1089,118,0,MIX,1,118,NA,NA,NA,NA,NA,NA
211,3,2,19,1,1,2,2,1,2,1,0,409,119,0,MIX,4,119,NA,NA,NA,NA,NA,NA
212,3,2,20,1,1,2,2,1,2,1,0,876,2,1,MIX,2,120,NA,NA,NA,NA,NA,NA
213,3,2,21,1,1,8,4,5,2,1,0,892,8,1,MIX,8,2,5,7,121,122,123,124
214,3,2,22,1,1,2,1,2,1,1,1,604,6,1,MIX,6,125,NA,NA,NA,NA,NA,NA
215,3,2,23,2,1,2,0,0,2,1,1,758,127,0,MIX,7,126,NA,NA,NA,NA,NA,NA
216,3,2,24,2,1,4,0,0,2,0,0,752,130,0,MIX,1,8,128,129,NA,NA,NA,NA
217,3,3,1,2,1,2,0,0,1,1,0,606,132,0,MIX,4,131,NA,NA,NA,NA,NA,NA
218,3,3,2,2,1,2,0,0,2,1,1,553,134,0,MIX,3,133,NA,NA,NA,NA,NA,NA
219,3,3,3,2,1,4,0,0,2,1,1,554,137,0,MIX,5,1,135,136,NA,NA,NA,NA
220,3,3,4,1,1,2,1,2,1,1,1,839,6,1,MIX,6,138,NA,NA,NA,NA,NA,NA
221,3,3,5,2,1,2,0,0,1,1,0,617,140,0,MIX,5,139,NA,NA,NA,NA,NA,NA
222,3,3,6,2,1,4,0,0,2,1,1,984,2,1,MIX,2,8,141,142,NA,NA,NA,NA
223,3,3,7,2,1,2,0,0,1,1,0,436,144,0,MIX,8,143,NA,NA,NA,NA,NA,NA
224,3,3,8,2,1,2,0,0,2,1,1,598,146,0,MIX,4,145,NA,NA,NA,NA,NA,NA
225,3,3,9,1,1,4,4,1,1,0,0,838,1,1,MIX,1,5,147,148,NA,NA,NA,NA
226,3,3,10,1,1,8,1,8,1,1,1,598,149,0,MIX,4,6,8,1,149,150,151,152
227,3,3,11,1,1,2,1,2,2,1,0,977,4,1,MIX,4,153,NA,NA,NA,NA,NA,NA
228,3,3,12,2,1,4,0,0,1,1,0,3442,15,1,MIX,8,6,154,155,NA,NA,NA,NA
229,3,3,13,1,1,4,2,3,1,1,1,529,4,1,MIX,5,4,156,157,NA,NA,NA,NA
230,3,3,14,2,1,2,0,0,1,1,0,624,159,0,MIX,7,158,NA,NA,NA,NA,NA,NA
231,3,3,15,1,1,8,8,1,1,1,1,1322,161,0,MIX,8,1,2,6,160,161,162,163
232,3,3,16,1,1,2,1,2,2,1,0,3177,164,0,MIX,3,164,NA,NA,NA,NA,NA,NA
233,3,3,17,2,1,2,0,0,2,1,1,685,166,0,MIX,1,165,NA,NA,NA,NA,NA,NA
234,3,3,18,1,1,4,4,1,2,1,0,2330,4,1,MIX,2,4,167,168,NA,NA,NA,NA
235,3,3,19,1,1,4,4,1,2,1,0,2373,3,1,MIX,3,5,169,170,NA,NA,NA,NA
236,3,3,20,2,1,8,0,0,2,0,0,855,175,0,MIX,5,3,4,2,171,172,173,174
237,3,3,21,2,1,8,0,0,1,1,0,469,180,0,MIX,6,5,1,8,176,177,178,179
238,3,3,22,2,1,2,0,0,2,1,1,870,182,0,MIX,8,181,NA,NA,NA,NA,NA,NA
239,3,3,23,1,1,8,6,3,2,1,0,516,3,1,MIX,1,3,7,4,183,184,185,186
240,3,3,24,2,1,4,0,0,1,1,0,582,189,0,MIX,4,7,187,188,NA,NA,NA,NA
241,3,4,1,1,1,8,2,7,2,0,1,554,193,0,MIX,7,5,4,6,190,191,192,193
242,3,4,2,2,1,8,0,0,1,1,0,1655,14,1,MIX,1,2,4,8,194,195,196,197
243,3,4,3,1,1,4,4,1,2,0,1,6397,7,1,MIX,8,7,198,199,NA,NA,NA,NA
244,3,4,4,1,1,2,1,2,1,1,1,881,5,1,MIX,5,200,NA,NA,NA,NA,NA,NA
245,3,4,5,2,1,2,0,0,2,1,1,849,202,0,MIX,2,201,NA,NA,NA,NA,NA,NA
246,3,4,6,1,1,2,2,1,2,1,0,483,1,1,MIX,1,203,NA,NA,NA,NA,NA,NA
247,3,4,7,1,1,4,2,3,2,1,0,648,205,0,MIX,8,7,204,205,NA,NA,NA,NA
248,3,4,8,1,1,4,2,3,2,1,0,454,206,0,MIX,2,1,206,207,NA,NA,NA,NA
249,3,4,9,2,1,2,0,0,2,0,0,4647,14,1,MIX,2,208,NA,NA,NA,NA,NA,NA
250,3,4,10,1,1,4,4,1,2,1,0,374,5,1,MIX,5,1,209,210,NA,NA,NA,NA
251,3,4,11,1,1,2,1,2,1,1,1,730,7,1,MIX,7,211,NA,NA,NA,NA,NA,NA
252,3,4,12,1,1,8,4,5,2,1,0,4111,4,1,MIX,4,6,3,7,212,213,214,215
253,3,4,13,1,1,4,2,3,2,1,0,642,6,1,MIX,1,6,216,217,NA,NA,NA,NA
254,3,4,14,2,1,2,0,0,1,1,0,508,219,0,MIX,8,218,NA,NA,NA,NA,NA,NA
255,3,4,15,2,1,4,0,0,2,1,1,880,3,1,MIX,2,5,220,221,NA,NA,NA,NA
256,3,4,16,2,1,8,0,0,1,1,0,1166,12,1,MIX,5,1,3,6,222,223,224,225
257,3,4,17,2,1,2,0,0,2,1,1,3073,227,0,MIX,7,226,NA,NA,NA,NA,NA,NA
258,3,4,18,2,1,4,0,0,1,1,0,4495,10,1,MIX,1,8,228,229,NA,NA,NA,NA
259,3,4,19,1,1,8,7,2,2,1,0,477,1,1,MIX,1,2,3,4,230,231,232,233
260,3,4,20,2,1,8,0,0,1,1,0,507,9,1,MIX,5,1,3,6,234,235,236,237
261,3,4,21,2,1,8,0,0,1,1,0,568,242,0,MIX,8,1,3,5,238,239,240,241
262,3,4,22,1,1,4,4,1,2,1,0,474,244,0,MIX,3,2,243,244,NA,NA,NA,NA
263,3,4,23,1,1,2,1,2,1,1,1,523,8,1,MIX,8,245,NA,NA,NA,NA,NA,NA
264,3,4,24,1,1,8,2,7,1,1,1,4504,5,1,MIX,3,4,5,7,246,247,248,249
265,3,5,1,1,1,4,4,1,2,1,0,323,251,0,MIX,7,8,250,251,NA,NA,NA,NA
266,3,5,2,1,1,2,2,1,1,1,1,4682,7,1,MIX,7,252,NA,NA,NA,NA,NA,NA
267,3,5,3,2,1,8,0,0,2,1,1,1344,7,1,MIX,2,4,3,6,253,254,255,256
268,3,5,4,1,1,8,3,6,2,1,0,524,258,0,MIX,2,8,1,6,257,258,259,260
269,3,5,5,2,1,4,0,0,2,1,1,575,263,0,MIX,8,2,261,262,NA,NA,NA,NA
270,3,5,6,1,1,8,7,2,2,1,0,3257,3,1,MIX,2,6,3,1,264,265,266,267
271,3,5,7,2,1,2,0,0,1,0,1,683,2,1,MIX,4,268,NA,NA,NA,NA,NA,NA
272,3,5,8,1,1,4,2,3,2,1,0,745,270,0,MIX,3,7,269,270,NA,NA,NA,NA
273,3,5,9,2,1,4,0,0,1,1,0,2420,15,1,MIX,4,6,271,272,NA,NA,NA,NA
274,3,5,10,1,1,8,5,4,1,1,1,869,6,1,MIX,4,1,5,6,273,274,275,276
275,3,5,11,1,1,4,3,2,2,1,0,731,8,1,MIX,4,8,277,278,NA,NA,NA,NA
276,3,5,12,2,1,8,0,0,1,1,0,529,11,1,MIX,8,1,7,6,279,280,281,282
277,3,5,13,2,1,2,0,0,2,1,1,527,284,0,MIX,3,283,NA,NA,NA,NA,NA,NA
278,3,5,14,1,1,2,1,2,2,1,0,477,2,1,MIX,2,285,NA,NA,NA,NA,NA,NA
279,3,5,15,1,1,4,4,1,2,1,0,434,287,0,MIX,4,1,286,287,NA,NA,NA,NA
280,3,5,16,2,1,8,0,0,1,0,1,1299,4,1,MIX,4,5,7,1,288,289,290,291
281,3,5,17,1,1,2,1,2,2,1,0,930,3,1,MIX,3,292,NA,NA,NA,NA,NA,NA
282,3,5,18,2,1,2,0,0,1,1,0,496,14,1,MIX,4,293,NA,NA,NA,NA,NA,NA
283,3,5,19,2,1,2,0,0,1,1,0,608,15,1,MIX,6,294,NA,NA,NA,NA,NA,NA
284,3,5,20,2,1,2,0,0,1,1,0,9436,9,1,MIX,8,295,NA,NA,NA,NA,NA,NA
285,3,5,21,2,1,2,0,0,2,1,1,422,2,1,MIX,6,296,NA,NA,NA,NA,NA,NA
286,3,5,22,1,1,8,2,7,2,1,0,2342,297,0,MIX,6,8,7,5,297,298,299,300
287,3,5,23,1,1,4,2,3,2,1,0,576,302,0,MIX,1,3,301,302,NA,NA,NA,NA
288,3,5,24,2,1,8,0,0,1,1,0,3034,307,0,MIX,6,7,1,2,303,304,305,306
289,3,6,1,2,1,2,0,0,2,1,1,508,309,0,MIX,1,308,NA,NA,NA,NA,NA,NA
290,3,6,2,2,1,8,0,0,1,1,0,712,314,0,MIX,2,5,8,3,310,311,312,313
291,3,6,3,1,1,4,1,4,1,1,1,1029,315,0,MIX,5,8,315,316,NA,NA,NA,NA
292,3,6,4,2,1,2,0,0,1,1,0,511,318,0,MIX,8,317,NA,NA,NA,NA,NA,NA
293,3,6,5,2,1,4,0,0,2,1,1,418,321,0,MIX,8,3,319,320,NA,NA,NA,NA
294,3,6,6,2,1,4,0,0,1,1,0,3561,15,1,MIX,8,4,322,323,NA,NA,NA,NA
295,3,6,7,1,1,2,2,1,2,1,0,445,324,0,MIX,4,324,NA,NA,NA,NA,NA,NA
296,3,6,8,2,1,8,0,0,1,1,0,812,15,1,MIX,5,6,2,3,325,326,327,328
297,3,6,9,1,1,2,1,2,2,1,0,3248,5,1,MIX,5,329,NA,NA,NA,NA,NA,NA
298,3,6,10,2,1,2,0,0,1,1,0,418,14,1,MIX,3,330,NA,NA,NA,NA,NA,NA
299,3,6,11,2,1,2,0,0,2,1,1,596,5,1,MIX,8,331,NA,NA,NA,NA,NA,NA
300,3,6,12,2,1,4,0,0,2,1,1,516,8,1,MIX,5,6,332,333,NA,NA,NA,NA
301,3,6,13,1,1,4,3,2,2,1,0,2152,335,0,MIX,7,5,334,335,NA,NA,NA,NA
302,3,6,14,1,1,4,2,3,2,1,0,474,337,0,MIX,5,3,336,337,NA,NA,NA,NA
303,3,6,15,2,1,2,0,0,1,1,0,953,339,0,MIX,4,338,NA,NA,NA,NA,NA,NA
304,3,6,16,2,1,2,0,0,2,1,1,438,341,0,MIX,5,340,NA,NA,NA,NA,NA,NA
305,3,6,17,2,1,2,0,0,2,0,0,2199,14,1,MIX,1,342,NA,NA,NA,NA,NA,NA
306,3,6,18,1,1,4,2,3,2,1,0,1879,343,0,MIX,2,8,343,344,NA,NA,NA,NA
307,3,6,19,2,1,8,0,0,1,1,0,413,9,1,MIX,8,1,3,7,345,346,347,348
308,3,6,20,1,1,8,8,1,2,1,0,367,5,1,MIX,7,1,2,5,349,350,351,352
309,3,6,21,1,1,8,5,4,2,1,0,545,7,1,MIX,6,2,1,7,353,354,355,356
310,3,6,22,1,1,4,1,4,2,0,1,931,357,0,MIX,6,2,357,358,NA,NA,NA,NA
311,3,6,23,2,1,8,0,0,1,1,0,815,363,0,MIX,7,2,5,6,359,360,361,362
312,3,6,24,1,1,8,8,1,1,1,1,529,8,1,MIX,3,8,1,7,364,365,366,367
313,3,7,1,2,1,4,0,0,1,1,0,411,16,1,MIX,5,6,368,369,NA,NA,NA,NA
314,3,7,2,2,1,8,0,0,2,1,1,411,1,1,MIX,1,5,2,6,370,371,372,373
315,3,7,3,1,1,4,2,3,1,1,1,627,374,0,MIX,6,5,374,375,NA,NA,NA,NA
316,3,7,4,1,1,4,2,3,1,1,1,753,8,1,MIX,8,4,376,377,NA,NA,NA,NA
317,3,7,5,2,1,8,0,0,1,1,0,819,13,1,MIX,1,8,4,5,378,379,380,381
318,3,7,6,1,1,8,4,5,1,0,0,468,383,0,MIX,5,7,1,8,382,383,384,385
319,3,7,7,1,1,8,7,2,2,1,0,739,388,0,MIX,5,4,6,2,386,387,388,389
320,3,7,8,1,1,4,4,1,1,1,1,3998,391,0,MIX,5,6,390,391,NA,NA,NA,NA
321,3,7,9,1,1,2,1,2,1,1,1,657,6,1,MIX,6,392,NA,NA,NA,NA,NA,NA
322,3,7,10,2,1,8,0,0,1,1,0,937,397,0,MIX,5,3,8,2,393,394,395,396
323,3,7,11,2,1,4,0,0,1,1,0,636,16,1,MIX,3,7,398,399,NA,NA,NA,NA
324,3,7,12,2,1,4,0,0,1,0,1,4329,402,0,MIX,3,4,400,401,NA,NA,NA,NA
325,3,7,13,1,1,4,1,4,1,1,1,518,7,1,MIX,4,7,403,404,NA,NA,NA,NA
326,3,7,14,1,1,4,3,2,2,1,0,536,405,0,MIX,5,2,405,406,NA,NA,NA,NA
327,3,7,15,1,1,2,2,1,1,1,1,2470,407,0,MIX,2,407,NA,NA,NA,NA,NA,NA
328,3,7,16,2,1,2,0,0,2,1,1,487,1,1,MIX,6,408,NA,NA,NA,NA,NA,NA
329,3,7,17,1,1,2,1,2,1,1,1,631,2,1,MIX,2,409,NA,NA,NA,NA,NA,NA
330,3,7,18,1,1,4,2,3,2,1,0,742,7,1,MIX,7,6,410,411,NA,NA,NA,NA
331,3,7,19,1,1,4,2,3,1,0,0,593,413,0,MIX,6,5,412,413,NA,NA,NA,NA
332,3,7,20,2,1,8,0,0,2,1,1,524,1,1,MIX,4,5,1,3,414,415,416,417
333,3,7,21,1,1,4,1,4,1,1,1,511,6,1,MIX,6,3,418,419,NA,NA,NA,NA
334,3,7,22,1,1,4,1,4,2,0,1,867,2,1,MIX,5,2,420,421,NA,NA,NA,NA
335,3,7,23,2,1,8,0,0,2,1,1,770,2,1,MIX,2,3,8,7,422,423,424,425
336,3,7,24,2,1,4,0,0,1,0,1,2106,4,1,MIX,4,7,426,427,NA,NA,NA,NA
337,3,8,1,1,1,4,4,1,2,1,0,525,7,1,MIX,3,7,428,429,NA,NA,NA,NA
338,3,8,2,1,1,8,3,6,1,0,0,1258,432,0,MIX,7,1,2,6,430,431,432,433
339,3,8,3,1,1,2,1,2,1,1,1,556,434,0,MIX,7,434,NA,NA,NA,NA,NA,NA
340,3,8,4,2,1,8,0,0,1,0,1,1558,439,0,MIX,2,7,3,4,435,436,437,438
341,3,8,5,1,1,4,2,3,2,1,0,513,6,1,MIX,4,6,440,441,NA,NA,NA,NA
342,3,8,6,1,1,4,2,3,2,1,0,598,2,1,MIX,2,1,442,443,NA,NA,NA,NA
343,3,8,7,1,1,4,2,3,2,1,0,1254,7,1,MIX,5,7,444,445,NA,NA,NA,NA
344,3,8,8,2,1,2,0,0,2,1,1,968,6,1,MIX,2,446,NA,NA,NA,NA,NA,NA
345,3,8,9,2,1,2,0,0,2,1,1,628,8,1,MIX,4,447,NA,NA,NA,NA,NA,NA
346,3,8,10,1,1,8,1,8,2,1,0,6508,6,1,MIX,3,2,4,6,448,449,450,451
347,3,8,11,2,1,8,0,0,2,1,1,746,456,0,MIX,3,2,6,4,452,453,454,455
348,3,8,12,2,1,8,0,0,2,1,1,1181,461,0,MIX,6,1,5,2,457,458,459,460
349,3,8,13,2,1,8,0,0,1,1,0,480,14,1,MIX,2,7,8,3,462,463,464,465
350,3,8,14,1,1,8,6,3,1,1,1,718,3,1,MIX,5,7,2,3,466,467,468,469
351,3,8,15,2,1,2,0,0,1,1,0,436,471,0,MIX,7,470,NA,NA,NA,NA,NA,NA
352,3,8,16,1,1,4,4,1,1,1,1,4251,472,0,MIX,7,2,472,473,NA,NA,NA,NA
353,3,8,17,1,1,4,1,4,1,1,1,649,475,0,MIX,1,7,474,475,NA,NA,NA,NA
354,3,8,18,1,1,4,1,4,1,0,0,5399,477,0,MIX,3,7,476,477,NA,NA,NA,NA
355,3,8,19,2,1,8,0,0,2,0,0,2465,13,1,MIX,3,5,8,7,478,479,480,481
356,3,8,20,1,1,2,2,1,2,1,0,466,482,0,MIX,3,482,NA,NA,NA,NA,NA,NA
357,3,8,21,1,1,2,1,2,2,1,0,451,483,0,MIX,5,483,NA,NA,NA,NA,NA,NA
358,3,8,22,1,1,4,2,3,1,1,1,745,485,0,MIX,8,3,484,485,NA,NA,NA,NA
359,3,8,23,2,1,8,0,0,1,0,1,542,6,1,MIX,8,2,4,6,486,487,488,489
360,3,8,24,2,1,4,0,0,1,1,0,2097,15,1,MIX,4,8,490,491,NA,NA,NA,NA
361,3,9,1,2,1,2,0,0,2,1,1,493,493,0,MIX,1,492,NA,NA,NA,NA,NA,NA
362,3,9,2,2,1,8,0,0,1,1,0,587,498,0,MIX,2,3,4,7,494,495,496,497
363,3,9,3,1,1,2,2,1,2,0,1,487,1,1,MIX,1,499,NA,NA,NA,NA,NA,NA
364,3,9,4,1,1,4,3,2,2,1,0,588,1,1,MIX,6,1,500,501,NA,NA,NA,NA
365,3,9,5,1,1,2,1,2,2,1,0,600,8,1,MIX,8,502,NA,NA,NA,NA,NA,NA
366,3,9,6,2,1,4,0,0,2,1,1,1336,1,1,MIX,8,6,503,504,NA,NA,NA,NA
367,3,9,7,1,1,8,8,1,2,1,0,436,508,0,MIX,4,6,5,1,505,506,507,508
368,3,9,8,1,1,4,1,4,1,1,1,602,3,1,MIX,6,3,509,510,NA,NA,NA,NA
369,3,9,9,1,1,2,1,2,1,1,1,454,6,1,MIX,6,511,NA,NA,NA,NA,NA,NA
370,3,9,10,1,1,8,6,3,2,1,0,1380,7,1,MIX,1,2,7,5,512,513,514,515
371,3,9,11,2,1,4,0,0,1,1,0,645,518,0,MIX,2,1,516,517,NA,NA,NA,NA
372,3,9,12,1,1,8,5,4,2,0,1,2748,1,1,MIX,2,5,1,8,519,520,521,522
373,3,9,13,1,1,4,1,4,1,1,1,662,4,1,MIX,2,4,523,524,NA,NA,NA,NA
374,3,9,14,2,1,4,0,0,2,1,1,868,5,1,MIX,8,7,525,526,NA,NA,NA,NA
375,3,9,15,1,1,2,1,2,1,1,1,549,8,1,MIX,8,527,NA,NA,NA,NA,NA,NA
376,3,9,16,2,1,8,0,0,2,1,1,1650,1,1,MIX,8,2,4,7,528,529,530,531
377,3,9,17,1,1,8,7,2,1,1,1,721,534,0,MIX,3,2,1,8,532,533,534,535
378,3,9,18,2,1,2,0,0,1,1,0,551,15,1,MIX,5,536,NA,NA,NA,NA,NA,NA
379,3,9,19,1,1,2,1,2,2,1,0,628,537,0,MIX,6,537,NA,NA,NA,NA,NA,NA
380,3,9,20,2,1,4,0,0,1,1,0,804,540,0,MIX,7,2,538,539,NA,NA,NA,NA
381,3,9,21,2,1,4,0,0,1,1,0,540,543,0,MIX,1,4,541,542,NA,NA,NA,NA
382,3,9,22,1,1,8,6,3,2,1,0,696,544,0,MIX,5,1,6,8,544,545,546,547
383,3,9,23,2,1,4,0,0,2,1,1,1716,2,1,MIX,3,7,548,549,NA,NA,NA,NA
384,3,9,24,2,1,8,0,0,1,1,0,657,12,1,MIX,3,8,6,2,550,551,552,553
385,4,2,1,1,1,4,4,1,2,1,0,476,3,1,MIX,3,7,83,84,NA,NA,NA,NA
386,4,2,2,1,1,4,2,3,2,0,1,640,85,0,MIX,1,2,85,86,NA,NA,NA,NA
387,4,2,3,2,1,4,0,0,2,1,1,1120,7,1,MIX,6,7,87,88,NA,NA,NA,NA
388,4,2,4,2,1,4,0,0,2,1,1,1067,8,1,MIX,5,7,89,90,NA,NA,NA,NA
389,4,2,5,2,1,8,0,0,2,0,0,2036,11,1,MIX,3,2,5,8,91,92,93,94
390,4,2,6,2,1,4,0,0,2,1,1,1513,7,1,MIX,7,1,95,96,NA,NA,NA,NA
391,4,2,7,1,1,2,1,2,1,1,1,655,1,1,MIX,1,97,NA,NA,NA,NA,NA,NA
392,4,2,8,2,1,2,0,0,2,1,1,825,99,0,MIX,2,98,NA,NA,NA,NA,NA,NA
393,4,2,9,1,1,4,3,2,1,1,1,656,6,1,MIX,5,6,100,101,NA,NA,NA,NA
394,4,2,10,2,1,4,0,0,2,1,1,716,104,0,MIX,7,5,102,103,NA,NA,NA,NA
395,4,2,11,1,1,8,6,3,2,1,0,591,7,1,MIX,5,7,3,2,105,106,107,108
396,4,2,12,2,1,4,0,0,2,1,1,640,111,0,MIX,7,8,109,110,NA,NA,NA,NA
397,4,2,13,2,1,2,0,0,1,1,0,585,10,1,MIX,1,112,NA,NA,NA,NA,NA,NA
398,4,2,14,2,1,8,0,0,2,1,1,1300,3,1,MIX,8,4,3,2,113,114,115,116
399,4,2,15,2,1,2,0,0,1,1,0,849,118,0,MIX,8,117,NA,NA,NA,NA,NA,NA
400,4,2,16,1,1,2,2,1,2,1,0,545,7,1,MIX,7,119,NA,NA,NA,NA,NA,NA
401,4,2,17,1,1,8,7,2,2,1,0,734,6,1,MIX,7,8,2,6,120,121,122,123
402,4,2,18,1,1,4,2,3,1,1,1,632,8,1,MIX,7,8,124,125,NA,NA,NA,NA
403,4,2,19,2,1,8,0,0,2,1,1,607,130,0,MIX,5,8,4,2,126,127,128,129
404,4,2,20,1,1,8,3,6,2,1,0,516,3,1,MIX,2,5,6,3,131,132,133,134
405,4,2,21,1,1,4,3,2,2,1,0,423,136,0,MIX,8,7,135,136,NA,NA,NA,NA
406,4,2,22,1,1,2,2,1,2,1,0,442,8,1,MIX,8,137,NA,NA,NA,NA,NA,NA
407,4,2,23,1,1,8,5,4,1,1,1,807,139,0,MIX,3,7,4,6,138,139,140,141
408,4,2,24,1,1,4,2,3,1,1,1,495,142,0,MIX,2,3,142,143,NA,NA,NA,NA
409,4,3,1,1,1,2,1,2,1,1,1,401,7,1,MIX,7,144,NA,NA,NA,NA,NA,NA
410,4,3,2,2,1,2,0,0,1,1,0,658,146,0,MIX,3,145,NA,NA,NA,NA,NA,NA
411,4,3,3,1,1,2,2,1,2,1,0,490,147,0,MIX,1,147,NA,NA,NA,NA,NA,NA
412,4,3,4,2,1,4,0,0,2,1,1,589,150,0,MIX,5,1,148,149,NA,NA,NA,NA
413,4,3,5,2,1,8,0,0,1,1,0,904,15,1,MIX,3,2,8,4,151,152,153,154
414,4,3,6,2,1,4,0,0,2,1,1,636,1,1,MIX,8,5,155,156,NA,NA,NA,NA
415,4,3,7,1,1,8,3,6,2,1,0,1572,157,0,MIX,4,6,8,3,157,158,159,160
416,4,3,8,2,1,4,0,0,2,1,1,701,4,1,MIX,5,6,161,162,NA,NA,NA,NA
417,4,3,9,1,1,8,5,4,1,1,1,609,164,0,MIX,7,4,1,6,163,164,165,166
418,4,3,10,1,1,2,2,1,1,1,1,428,6,1,MIX,6,167,NA,NA,NA,NA,NA,NA
419,4,3,11,2,1,4,0,0,2,1,1,466,170,0,MIX,2,3,168,169,NA,NA,NA,NA
420,4,3,12,1,1,8,7,2,2,1,0,637,174,0,MIX,4,6,2,3,171,172,173,174
421,4,3,13,1,1,2,1,2,2,1,0,502,175,0,MIX,5,175,NA,NA,NA,NA,NA,NA
422,4,3,14,2,1,4,0,0,1,0,1,889,5,1,MIX,4,1,176,177,NA,NA,NA,NA
423,4,3,15,2,1,8,0,0,2,1,1,1384,2,1,MIX,1,4,5,6,178,179,180,181
424,4,3,16,1,1,2,2,1,2,1,0,436,182,0,MIX,7,182,NA,NA,NA,NA,NA,NA
425,4,3,17,2,1,4,0,0,2,1,1,617,4,1,MIX,3,7,183,184,NA,NA,NA,NA
426,4,3,18,1,1,4,2,3,2,1,0,1015,186,0,MIX,3,4,185,186,NA,NA,NA,NA
427,4,3,19,1,1,2,2,1,2,0,1,593,3,1,MIX,3,187,NA,NA,NA,NA,NA,NA
428,4,3,20,1,1,2,1,2,2,1,0,796,188,0,MIX,6,188,NA,NA,NA,NA,NA,NA
429,4,3,21,2,1,4,0,0,1,1,0,689,191,0,MIX,2,3,189,190,NA,NA,NA,NA
430,4,3,22,2,1,2,0,0,1,1,0,906,13,1,MIX,5,192,NA,NA,NA,NA,NA,NA
431,4,3,23,2,1,4,0,0,2,1,1,574,3,1,MIX,3,8,193,194,NA,NA,NA,NA
432,4,3,24,2,1,4,0,0,1,1,0,623,197,0,MIX,7,6,195,196,NA,NA,NA,NA
433,4,4,1,1,1,8,6,3,2,1,0,678,199,0,MIX,2,3,5,6,198,199,200,201
434,4,4,2,1,1,2,1,2,2,1,0,655,1,1,MIX,1,202,NA,NA,NA,NA,NA,NA
435,4,4,3,2,1,2,0,0,2,1,1,535,204,0,MIX,2,203,NA,NA,NA,NA,NA,NA
436,4,4,4,2,1,8,0,0,1,1,0,785,209,0,MIX,3,2,6,8,205,206,207,208
437,4,4,5,1,1,8,5,4,1,1,1,565,4,1,MIX,6,8,1,4,210,211,212,213
438,4,4,6,1,1,2,2,1,1,1,1,465,2,1,MIX,2,214,NA,NA,NA,NA,NA,NA
439,4,4,7,2,1,4,0,0,1,1,0,552,217,0,MIX,1,7,215,216,NA,NA,NA,NA
440,4,4,8,2,1,2,0,0,2,1,1,500,219,0,MIX,7,218,NA,NA,NA,NA,NA,NA
441,4,4,9,2,1,4,0,0,2,1,1,473,222,0,MIX,2,3,220,221,NA,NA,NA,NA
442,4,4,10,2,1,4,0,0,1,1,0,556,225,0,MIX,4,3,223,224,NA,NA,NA,NA
443,4,4,11,1,1,8,4,5,1,1,1,1089,228,0,MIX,4,7,8,6,226,227,228,229
444,4,4,12,2,1,2,0,0,2,1,1,538,6,1,MIX,6,230,NA,NA,NA,NA,NA,NA
445,4,4,13,2,1,2,0,0,1,1,0,630,13,1,MIX,4,231,NA,NA,NA,NA,NA,NA
446,4,4,14,2,1,8,0,0,2,1,1,1470,1,1,MIX,5,7,6,4,232,233,234,235
447,4,4,15,2,1,4,0,0,1,1,0,554,238,0,MIX,3,4,236,237,NA,NA,NA,NA
448,4,4,16,2,1,2,0,0,1,1,0,503,240,0,MIX,2,239,NA,NA,NA,NA,NA,NA
449,4,4,17,2,1,8,0,0,1,1,0,593,245,0,MIX,2,3,6,4,241,242,243,244
450,4,4,18,1,1,8,2,7,1,1,1,523,8,1,MIX,1,7,2,8,246,247,248,249
451,4,4,19,2,1,4,0,0,1,1,0,813,252,0,MIX,3,7,250,251,NA,NA,NA,NA
452,4,4,20,1,1,4,4,1,2,1,0,548,254,0,MIX,4,8,253,254,NA,NA,NA,NA
453,4,4,21,1,1,4,2,3,1,1,1,965,256,0,MIX,6,4,255,256,NA,NA,NA,NA
454,4,4,22,1,1,8,1,8,1,1,1,877,260,0,MIX,4,1,2,8,257,258,259,260
455,4,4,23,1,1,4,3,2,2,1,0,912,262,0,MIX,4,5,261,262,NA,NA,NA,NA
456,4,4,24,2,1,8,0,0,2,1,1,762,6,1,MIX,6,1,5,3,263,264,265,266
457,4,5,1,1,1,2,1,2,2,1,0,548,4,1,MIX,4,267,NA,NA,NA,NA,NA,NA
458,4,5,2,1,1,8,2,7,2,1,0,590,269,0,MIX,7,4,1,8,268,269,270,271
459,4,5,3,2,1,2,0,0,2,1,1,1002,4,1,MIX,2,272,NA,NA,NA,NA,NA,NA
460,4,5,4,2,1,8,0,0,1,1,0,623,277,0,MIX,4,2,6,7,273,274,275,276
461,4,5,5,1,1,4,4,1,1,1,1,445,5,1,MIX,5,2,278,279,NA,NA,NA,NA
462,4,5,6,1,1,2,2,1,2,1,0,414,280,0,MIX,4,280,NA,NA,NA,NA,NA,NA
463,4,5,7,1,1,4,4,1,2,1,0,502,6,1,MIX,3,6,281,282,NA,NA,NA,NA
464,4,5,8,1,1,8,8,1,1,1,1,466,5,1,MIX,8,5,3,6,283,284,285,286
465,4,5,9,1,1,2,2,1,2,1,0,371,287,0,MIX,7,287,NA,NA,NA,NA,NA,NA
466,4,5,10,2,1,8,0,0,1,1,0,851,13,1,MIX,4,1,7,5,288,289,290,291
467,4,5,11,1,1,4,2,3,2,1,0,1032,293,0,MIX,2,6,292,293,NA,NA,NA,NA
468,4,5,12,2,1,8,0,0,2,1,1,575,298,0,MIX,8,6,1,5,294,295,296,297
469,4,5,13,1,1,8,5,4,1,1,1,630,3,1,MIX,2,8,6,3,299,300,301,302
470,4,5,14,2,1,8,0,0,1,0,1,800,1,1,MIX,5,6,8,4,303,304,305,306
471,4,5,15,1,1,8,4,5,2,1,0,1314,307,0,MIX,5,7,3,2,307,308,309,310
472,4,5,16,1,1,2,2,1,2,1,0,656,311,0,MIX,8,311,NA,NA,NA,NA,NA,NA
473,4,5,17,2,1,4,0,0,2,1,1,572,314,0,MIX,6,1,312,313,NA,NA,NA,NA
474,4,5,18,2,1,4,0,0,1,0,1,844,7,1,MIX,6,8,315,316,NA,NA,NA,NA
475,4,5,19,2,1,2,0,0,2,1,1,622,318,0,MIX,2,317,NA,NA,NA,NA,NA,NA
476,4,5,20,1,1,8,7,2,2,0,1,823,7,1,MIX,5,3,7,6,319,320,321,322
477,4,5,21,1,1,8,4,5,2,1,0,743,5,1,MIX,3,6,7,5,323,324,325,326
478,4,5,22,2,1,2,0,0,1,1,0,571,328,0,MIX,3,327,NA,NA,NA,NA,NA,NA
479,4,5,23,1,1,2,2,1,2,1,0,472,329,0,MIX,7,329,NA,NA,NA,NA,NA,NA
480,4,5,24,2,1,2,0,0,2,1,1,602,6,1,MIX,2,330,NA,NA,NA,NA,NA,NA
481,4,6,1,1,1,2,1,2,2,1,0,468,1,1,MIX,1,331,NA,NA,NA,NA,NA,NA
482,4,6,2,1,1,2,1,2,1,1,1,724,1,1,MIX,1,332,NA,NA,NA,NA,NA,NA
483,4,6,3,1,1,8,7,2,1,1,1,585,333,0,MIX,4,8,3,6,333,334,335,336
484,4,6,4,1,1,4,3,2,1,1,1,714,3,1,MIX,3,5,337,338,NA,NA,NA,NA
485,4,6,5,1,1,2,2,1,1,1,1,737,339,0,MIX,5,339,NA,NA,NA,NA,NA,NA
486,4,6,6,1,1,8,6,3,2,1,0,545,2,1,MIX,5,2,8,4,340,341,342,343
487,4,6,7,1,1,4,3,2,2,1,0,691,345,0,MIX,3,8,344,345,NA,NA,NA,NA
488,4,6,8,1,1,4,2,3,1,1,1,895,6,1,MIX,1,6,346,347,NA,NA,NA,NA
489,4,6,9,1,1,2,2,1,1,1,1,478,348,0,MIX,1,348,NA,NA,NA,NA,NA,NA
490,4,6,10,1,1,4,3,2,2,1,0,674,349,0,MIX,2,8,349,350,NA,NA,NA,NA
491,4,6,11,1,1,4,4,1,2,1,0,544,5,1,MIX,5,3,351,352,NA,NA,NA,NA
492,4,6,12,1,1,4,2,3,1,1,1,529,354,0,MIX,6,8,353,354,NA,NA,NA,NA
493,4,6,13,2,1,2,0,0,2,1,1,560,8,1,MIX,8,355,NA,NA,NA,NA,NA,NA
494,4,6,14,1,1,2,1,2,1,1,1,668,1,1,MIX,1,356,NA,NA,NA,NA,NA,NA
495,4,6,15,1,1,2,2,1,2,1,0,500,2,1,MIX,2,357,NA,NA,NA,NA,NA,NA
496,4,6,16,2,1,8,0,0,2,1,1,753,362,0,MIX,5,7,1,3,358,359,360,361
497,4,6,17,1,1,8,5,4,2,1,0,533,8,1,MIX,8,3,4,7,363,364,365,366
498,4,6,18,2,1,8,0,0,1,1,0,642,371,0,MIX,6,5,7,8,367,368,369,370
499,4,6,19,1,1,2,1,2,2,1,0,524,372,0,MIX,6,372,NA,NA,NA,NA,NA,NA
500,4,6,20,1,1,4,3,2,1,1,1,529,6,1,MIX,7,6,373,374,NA,NA,NA,NA
501,4,6,21,1,1,2,2,1,1,1,1,383,375,0,MIX,6,375,NA,NA,NA,NA,NA,NA
502,4,6,22,2,1,4,0,0,1,1,0,646,12,1,MIX,6,7,376,377,NA,NA,NA,NA
503,4,6,23,1,1,2,2,1,1,1,1,382,1,1,MIX,1,378,NA,NA,NA,NA,NA,NA
504,4,6,24,2,1,4,0,0,1,1,0,551,381,0,MIX,3,4,379,380,NA,NA,NA,NA
505,4,7,1,2,1,8,0,0,2,1,1,830,6,1,MIX,4,1,7,2,382,383,384,385
506,4,7,2,2,1,8,0,0,2,1,1,1004,390,0,MIX,3,5,6,7,386,387,388,389
507,4,7,3,1,1,8,6,3,2,1,0,486,391,0,MIX,1,7,4,3,391,392,393,394
508,4,7,4,1,1,4,2,3,1,1,1,794,2,1,MIX,2,5,395,396,NA,NA,NA,NA
509,4,7,5,2,1,8,0,0,2,1,1,1082,8,1,MIX,6,5,7,1,397,398,399,400
510,4,7,6,1,1,8,2,7,1,0,0,734,404,0,MIX,5,4,1,8,401,402,403,404
511,4,7,7,1,1,4,3,2,2,1,0,710,8,1,MIX,6,8,405,406,NA,NA,NA,NA
512,4,7,8,1,1,2,2,1,2,1,0,413,407,0,MIX,3,407,NA,NA,NA,NA,NA,NA
513,4,7,9,1,1,8,2,7,2,1,0,542,7,1,MIX,2,5,8,7,408,409,410,411
514,4,7,10,1,1,8,7,2,2,1,0,714,5,1,MIX,5,2,6,4,412,413,414,415
515,4,7,11,1,1,8,7,2,1,1,1,475,418,0,MIX,7,1,5,3,416,417,418,419
516,4,7,12,1,1,2,1,2,2,1,0,443,420,0,MIX,5,420,NA,NA,NA,NA,NA,NA
517,4,7,13,1,1,8,2,7,2,1,0,761,8,1,MIX,8,3,2,5,421,422,423,424
518,4,7,14,2,1,2,0,0,2,0,0,1982,15,1,MIX,4,425,NA,NA,NA,NA,NA,NA
519,4,7,15,2,1,8,0,0,2,1,1,783,430,0,MIX,8,7,3,4,426,427,428,429
520,4,7,16,2,1,4,0,0,1,1,0,774,433,0,MIX,1,4,431,432,NA,NA,NA,NA
521,4,7,17,1,1,2,1,2,1,1,1,491,8,1,MIX,8,434,NA,NA,NA,NA,NA,NA
522,4,7,18,2,1,8,0,0,1,0,1,873,8,1,MIX,3,5,8,7,435,436,437,438
523,4,7,19,1,1,2,1,2,1,1,1,569,439,0,MIX,7,439,NA,NA,NA,NA,NA,NA
524,4,7,20,2,1,8,0,0,1,1,0,660,10,1,MIX,6,5,1,7,440,441,442,443
525,4,7,21,2,1,2,0,0,2,1,1,619,445,0,MIX,8,444,NA,NA,NA,NA,NA,NA
526,4,7,22,1,1,8,6,3,1,1,1,580,448,0,MIX,1,6,4,5,446,447,448,449
527,4,7,23,2,1,4,0,0,2,1,1,1061,8,1,MIX,5,2,450,451,NA,NA,NA,NA
528,4,7,24,2,1,4,0,0,1,1,0,625,15,1,MIX,1,2,452,453,NA,NA,NA,NA
529,4,8,1,1,1,2,2,1,2,1,0,489,454,0,MIX,3,454,NA,NA,NA,NA,NA,NA
530,4,8,2,1,1,8,3,6,1,1,1,614,5,1,MIX,1,5,3,4,455,456,457,458
531,4,8,3,1,1,8,5,4,1,1,1,493,2,1,MIX,7,4,3,2,459,460,461,462
532,4,8,4,2,1,8,0,0,2,1,1,549,467,0,MIX,7,3,4,1,463,464,465,466
533,4,8,5,2,1,4,0,0,2,0,0,1847,15,1,MIX,3,5,468,469,NA,NA,NA,NA
534,4,8,6,2,1,2,0,0,2,1,1,479,2,1,MIX,6,470,NA,NA,NA,NA,NA,NA
535,4,8,7,2,1,4,0,0,2,1,1,755,8,1,MIX,4,5,471,472,NA,NA,NA,NA
536,4,8,8,2,1,2,0,0,1,1,0,600,10,1,MIX,5,473,NA,NA,NA,NA,NA,NA
537,4,8,9,1,1,4,4,1,2,1,0,631,6,1,MIX,6,8,474,475,NA,NA,NA,NA
538,4,8,10,1,1,4,4,1,2,1,0,485,1,1,MIX,4,1,476,477,NA,NA,NA,NA
539,4,8,11,1,1,2,1,2,1,1,1,516,478,0,MIX,6,478,NA,NA,NA,NA,NA,NA
540,4,8,12,2,1,2,0,0,2,1,1,563,480,0,MIX,6,479,NA,NA,NA,NA,NA,NA
541,4,8,13,1,1,4,4,1,1,1,1,611,481,0,MIX,2,5,481,482,NA,NA,NA,NA
542,4,8,14,1,1,2,1,2,2,1,0,764,483,0,MIX,2,483,NA,NA,NA,NA,NA,NA
543,4,8,15,2,1,8,0,0,2,1,1,958,7,1,MIX,8,5,1,7,484,485,486,487
544,4,8,16,2,1,2,0,0,1,1,0,538,11,1,MIX,3,488,NA,NA,NA,NA,NA,NA
545,4,8,17,1,1,2,2,1,2,1,0,503,489,0,MIX,8,489,NA,NA,NA,NA,NA,NA
546,4,8,18,2,1,8,0,0,2,1,1,790,2,1,MIX,1,8,6,4,490,491,492,493
547,4,8,19,2,1,2,0,0,2,1,1,457,7,1,MIX,6,494,NA,NA,NA,NA,NA,NA
548,4,8,20,1,1,8,2,7,1,1,1,1110,496,0,MIX,3,7,2,5,495,496,497,498
549,4,8,21,2,1,4,0,0,2,1,1,513,5,1,MIX,4,6,499,500,NA,NA,NA,NA
550,4,8,22,2,1,2,0,0,1,1,0,623,15,1,MIX,7,501,NA,NA,NA,NA,NA,NA
551,4,8,23,2,1,2,0,0,2,1,1,474,3,1,MIX,3,502,NA,NA,NA,NA,NA,NA
552,4,8,24,2,1,2,0,0,1,1,0,506,504,0,MIX,1,503,NA,NA,NA,NA,NA,NA
553,4,9,1,2,1,8,0,0,1,1,0,750,509,0,MIX,1,8,2,5,505,506,507,508
554,4,9,2,1,1,2,2,1,2,1,0,435,6,1,MIX,6,510,NA,NA,NA,NA,NA,NA
555,4,9,3,1,1,4,1,4,1,1,1,1352,7,1,MIX,5,7,511,512,NA,NA,NA,NA
556,4,9,4,2,1,8,0,0,1,1,0,644,517,0,MIX,1,3,6,2,513,514,515,516
557,4,9,5,1,1,4,1,4,2,1,0,736,519,0,MIX,6,7,518,519,NA,NA,NA,NA
558,4,9,6,2,1,8,0,0,1,1,0,883,16,1,MIX,7,8,2,4,520,521,522,523
559,4,9,7,2,1,2,0,0,1,1,0,576,525,0,MIX,7,524,NA,NA,NA,NA,NA,NA
560,4,9,8,1,1,8,6,3,1,1,1,635,1,1,MIX,4,8,1,5,526,527,528,529
561,4,9,9,2,1,8,0,0,2,1,1,816,3,1,MIX,6,4,8,1,530,531,532,533
562,4,9,10,2,1,4,0,0,2,1,1,615,536,0,MIX,3,2,534,535,NA,NA,NA,NA
563,4,9,11,1,1,4,3,2,1,1,1,551,538,0,MIX,7,6,537,538,NA,NA,NA,NA
564,4,9,12,1,1,4,3,2,2,1,0,665,7,1,MIX,3,7,539,540,NA,NA,NA,NA
565,4,9,13,1,1,2,2,1,1,1,1,449,4,1,MIX,4,541,NA,NA,NA,NA,NA,NA
566,4,9,14,2,1,2,0,0,2,1,1,769,543,0,MIX,4,542,NA,NA,NA,NA,NA,NA
567,4,9,15,2,1,4,0,0,1,1,0,904,546,0,MIX,1,6,544,545,NA,NA,NA,NA
568,4,9,16,1,1,4,2,3,1,1,1,970,7,1,MIX,4,7,547,548,NA,NA,NA,NA
569,4,9,17,2,1,2,0,0,1,1,0,517,550,0,MIX,2,549,NA,NA,NA,NA,NA,NA
570,4,9,18,1,1,4,2,3,2,1,0,712,6,1,MIX,6,3,551,552,NA,NA,NA,NA
571,4,9,19,2,1,8,0,0,2,1,1,634,5,1,MIX,8,3,6,7,553,554,555,556
572,4,9,20,2,1,8,0,0,1,0,1,931,5,1,MIX,2,7,4,8,557,558,559,560
573,4,9,21,2,1,4,0,0,1,1,0,709,11,1,MIX,1,3,561,562,NA,NA,NA,NA
574,4,9,22,1,1,4,2,3,2,1,0,943,6,1,MIX,6,4,563,564,NA,NA,NA,NA
575,4,9,23,2,1,8,0,0,1,1,0,730,13,1,MIX,5,3,6,1,565,566,567,568
576,4,9,24,1,1,8,4,5,1,1,1,859,571,0,MIX,4,6,7,8,569,570,571,572
577,5,2,1,2,1,2,0,0,2,1,1,3647,8,1,MIX,5,82,NA,NA,NA,NA,NA,NA
578,5,2,2,1,1,4,3,2,1,1,1,1077,3,1,MIX,2,3,83,84,NA,NA,NA,NA
579,5,2,3,1,1,8,1,8,2,1,0,669,6,1,MIX,7,3,6,5,85,86,87,88
580,5,2,4,1,1,4,1,4,2,1,0,980,89,0,MIX,3,8,89,90,NA,NA,NA,NA
581,5,2,5,2,1,4,0,0,1,1,0,605,93,0,MIX,5,4,91,92,NA,NA,NA,NA
582,5,2,6,2,1,4,0,0,1,1,0,734,15,1,MIX,7,8,94,95,NA,NA,NA,NA
583,5,2,7,1,1,2,1,2,2,1,0,956,96,0,MIX,1,96,NA,NA,NA,NA,NA,NA
584,5,2,8,1,1,2,1,2,2,1,0,978,5,1,MIX,5,97,NA,NA,NA,NA,NA,NA
585,5,2,9,2,1,2,0,0,2,1,1,991,99,0,MIX,3,98,NA,NA,NA,NA,NA,NA
586,5,2,10,1,1,4,2,3,1,1,1,2000,100,0,MIX,4,5,100,101,NA,NA,NA,NA
587,5,2,11,2,1,4,0,0,1,1,0,1055,104,0,MIX,5,8,102,103,NA,NA,NA,NA
588,5,2,12,2,1,8,0,0,1,1,0,951,109,0,MIX,1,2,3,5,105,106,107,108
589,5,2,13,2,1,8,0,0,1,0,1,1603,1,1,MIX,8,2,1,4,110,111,112,113
590,5,2,14,1,1,2,1,2,1,1,1,1014,114,0,MIX,7,114,NA,NA,NA,NA,NA,NA
591,5,2,15,2,1,4,0,0,2,1,1,662,117,0,MIX,3,6,115,116,NA,NA,NA,NA
592,5,2,16,1,1,4,3,2,2,1,0,1141,118,0,MIX,5,6,118,119,NA,NA,NA,NA
593,5,2,17,1,1,4,2,3,1,1,1,1224,8,1,MIX,8,6,120,121,NA,NA,NA,NA
594,5,2,18,1,1,2,1,2,2,1,0,900,122,0,MIX,7,122,NA,NA,NA,NA,NA,NA
595,5,2,19,1,1,4,1,4,1,1,1,985,5,1,MIX,5,2,123,124,NA,NA,NA,NA
596,5,2,20,2,1,4,0,0,2,1,1,1050,127,0,MIX,1,6,125,126,NA,NA,NA,NA
597,5,2,21,2,1,8,0,0,1,1,0,1106,132,0,MIX,1,8,2,3,128,129,130,131
598,5,2,22,2,1,8,0,0,1,1,0,1273,137,0,MIX,6,4,5,8,133,134,135,136
599,5,2,23,1,1,2,2,1,2,1,0,1122,138,0,MIX,4,138,NA,NA,NA,NA,NA,NA
600,5,2,24,1,1,2,2,1,2,1,0,537,139,0,MIX,4,139,NA,NA,NA,NA,NA,NA
601,5,3,1,2,1,8,0,0,1,1,0,951,144,0,MIX,5,1,8,4,140,141,142,143
602,5,3,2,2,1,4,0,0,1,1,0,745,147,0,MIX,1,6,145,146,NA,NA,NA,NA
603,5,3,3,2,1,2,0,0,1,1,0,2672,149,0,MIX,4,148,NA,NA,NA,NA,NA,NA
604,5,3,4,2,1,2,0,0,2,1,1,752,151,0,MIX,7,150,NA,NA,NA,NA,NA,NA
605,5,3,5,1,1,4,1,4,2,1,0,819,152,0,MIX,1,2,152,153,NA,NA,NA,NA
606,5,3,6,1,1,4,4,1,2,1,0,475,155,0,MIX,4,6,154,155,NA,NA,NA,NA
607,5,3,7,1,1,2,2,1,2,1,0,764,3,1,MIX,3,156,NA,NA,NA,NA,NA,NA
608,5,3,8,1,1,2,1,2,1,1,1,833,1,1,MIX,1,157,NA,NA,NA,NA,NA,NA
609,5,3,9,1,1,2,1,2,1,1,1,803,8,1,MIX,8,158,NA,NA,NA,NA,NA,NA
610,5,3,10,2,1,2,0,0,2,1,1,727,7,1,MIX,6,159,NA,NA,NA,NA,NA,NA
611,5,3,11,1,1,8,5,4,1,1,1,1477,161,0,MIX,5,4,8,6,160,161,162,163
612,5,3,12,2,1,8,0,0,1,1,0,749,168,0,MIX,1,4,6,8,164,165,166,167
613,5,3,13,1,1,4,1,4,1,1,1,1095,8,1,MIX,8,7,169,170,NA,NA,NA,NA
614,5,3,14,2,1,2,0,0,2,1,1,616,7,1,MIX,6,171,NA,NA,NA,NA,NA,NA
615,5,3,15,2,1,8,0,0,2,1,1,1088,4,1,MIX,8,4,2,3,172,173,174,175
616,5,3,16,1,1,2,1,2,1,1,1,833,176,0,MIX,2,176,NA,NA,NA,NA,NA,NA
617,5,3,17,2,1,4,0,0,1,1,0,1047,14,1,MIX,1,5,177,178,NA,NA,NA,NA
618,5,3,18,2,1,8,0,0,2,0,0,1384,183,0,MIX,2,3,7,5,179,180,181,182
619,5,3,19,1,1,8,1,8,1,1,1,988,184,0,MIX,3,1,5,6,184,185,186,187
620,5,3,20,1,1,2,1,2,1,1,1,1080,188,0,MIX,1,188,NA,NA,NA,NA,NA,NA
621,5,3,21,1,1,4,4,1,2,1,0,829,4,1,MIX,5,4,189,190,NA,NA,NA,NA
622,5,3,22,1,1,2,1,2,2,1,0,744,2,1,MIX,2,191,NA,NA,NA,NA,NA,NA
623,5,3,23,1,1,2,2,1,2,1,0,502,5,1,MIX,5,192,NA,NA,NA,NA,NA,NA
624,5,3,24,2,1,2,0,0,2,1,1,1134,4,1,MIX,3,193,NA,NA,NA,NA,NA,NA
625,5,4,1,1,1,8,4,5,2,1,0,667,2,1,MIX,2,7,4,1,194,195,196,197
626,5,4,2,2,1,4,0,0,2,1,1,832,200,0,MIX,7,2,198,199,NA,NA,NA,NA
627,5,4,3,1,1,2,1,2,2,1,0,811,201,0,MIX,1,201,NA,NA,NA,NA,NA,NA
628,5,4,4,2,1,4,0,0,1,1,0,628,204,0,MIX,3,8,202,203,NA,NA,NA,NA
629,5,4,5,2,1,2,0,0,2,1,1,967,5,1,MIX,3,205,NA,NA,NA,NA,NA,NA
630,5,4,6,2,1,4,0,0,2,1,1,1713,5,1,MIX,4,8,206,207,NA,NA,NA,NA
631,5,4,7,2,1,2,0,0,1,1,0,1512,209,0,MIX,5,208,NA,NA,NA,NA,NA,NA
632,5,4,8,2,1,4,0,0,1,1,0,756,212,0,MIX,2,4,210,211,NA,NA,NA,NA
633,5,4,9,1,1,2,1,2,1,1,1,802,213,0,MIX,6,213,NA,NA,NA,NA,NA,NA
634,5,4,10,1,1,8,7,2,2,1,0,1228,7,1,MIX,6,7,1,2,214,215,216,217
635,5,4,11,2,1,2,0,0,2,1,1,1000,5,1,MIX,3,218,NA,NA,NA,NA,NA,NA
636,5,4,12,1,1,2,1,2,2,1,0,1268,1,1,MIX,1,219,NA,NA,NA,NA,NA,NA
637,5,4,13,2,1,4,0,0,2,1,1,851,222,0,MIX,8,2,220,221,NA,NA,NA,NA
638,5,4,14,1,1,8,1,8,1,1,1,2227,225,0,MIX,7,3,5,1,223,224,225,226
639,5,4,15,1,1,2,2,1,1,1,1,495,227,0,MIX,7,227,NA,NA,NA,NA,NA,NA
640,5,4,16,2,1,2,0,0,2,1,1,615,229,0,MIX,1,228,NA,NA,NA,NA,NA,NA
641,5,4,17,1,1,8,8,1,2,1,0,552,4,1,MIX,7,8,4,6,230,231,232,233
642,5,4,18,2,1,8,0,0,1,1,0,1029,15,1,MIX,1,3,7,5,234,235,236,237
643,5,4,19,2,1,4,0,0,1,1,0,1084,240,0,MIX,8,6,238,239,NA,NA,NA,NA
644,5,4,20,2,1,8,0,0,2,1,1,755,245,0,MIX,7,8,2,4,241,242,243,244
645,5,4,21,1,1,8,5,4,1,1,1,1039,6,1,MIX,3,6,2,1,246,247,248,249
646,5,4,22,1,1,8,5,4,1,1,1,921,252,0,MIX,7,6,5,1,250,251,252,253
647,5,4,23,1,1,8,1,8,2,0,1,1511,1,1,MIX,1,3,2,4,254,255,256,257
648,5,4,24,1,1,8,4,5,1,1,1,1220,258,0,MIX,3,8,7,5,258,259,260,261
649,5,5,1,2,1,4,0,0,2,1,1,605,264,0,MIX,4,5,262,263,NA,NA,NA,NA
650,5,5,2,1,1,8,6,3,2,1,0,993,5,1,MIX,3,5,7,4,265,266,267,268
651,5,5,3,1,1,8,1,8,1,1,1,996,270,0,MIX,7,2,8,4,269,270,271,272
652,5,5,4,2,1,4,0,0,2,1,1,605,1,1,MIX,6,3,273,274,NA,NA,NA,NA
653,5,5,5,2,1,8,0,0,1,1,0,1031,279,0,MIX,4,2,6,7,275,276,277,278
654,5,5,6,1,1,4,4,1,2,1,0,903,281,0,MIX,6,1,280,281,NA,NA,NA,NA
655,5,5,7,1,1,4,4,1,1,1,1,1187,1,1,MIX,1,8,282,283,NA,NA,NA,NA
656,5,5,8,1,1,8,6,3,2,1,0,1143,287,0,MIX,1,6,5,7,284,285,286,287
657,5,5,9,2,1,2,0,0,1,1,0,590,10,1,MIX,6,288,NA,NA,NA,NA,NA,NA
658,5,5,10,2,1,4,0,0,2,1,1,1031,8,1,MIX,3,6,289,290,NA,NA,NA,NA
659,5,5,11,2,1,4,0,0,1,1,0,759,10,1,MIX,8,2,291,292,NA,NA,NA,NA
660,5,5,12,1,1,8,5,4,1,1,1,3044,7,1,MIX,5,7,3,6,293,294,295,296
661,5,5,13,2,1,8,0,0,1,1,0,725,9,1,MIX,2,6,5,8,297,298,299,300
662,5,5,14,1,1,2,1,2,1,1,1,1045,8,1,MIX,8,301,NA,NA,NA,NA,NA,NA
663,5,5,15,2,1,2,0,0,1,1,0,647,303,0,MIX,1,302,NA,NA,NA,NA,NA,NA
664,5,5,16,1,1,2,2,1,1,1,1,633,1,1,MIX,1,304,NA,NA,NA,NA,NA,NA
665,5,5,17,1,1,8,1,8,2,1,0,946,307,0,MIX,7,4,5,6,305,306,307,308
666,5,5,18,1,1,8,5,4,2,1,0,1144,312,0,MIX,6,1,2,4,309,310,311,312
667,5,5,19,1,1,2,1,2,1,1,1,998,5,1,MIX,5,313,NA,NA,NA,NA,NA,NA
668,5,5,20,1,1,8,2,7,1,1,1,769,3,1,MIX,8,4,3,7,314,315,316,317
669,5,5,21,2,1,8,0,0,1,0,1,1044,4,1,MIX,5,1,7,2,318,319,320,321
670,5,5,22,1,1,8,8,1,2,1,0,934,6,1,MIX,6,5,1,3,322,323,324,325
671,5,5,23,2,1,8,0,0,1,1,0,731,330,0,MIX,5,2,1,7,326,327,328,329
672,5,5,24,1,1,2,1,2,2,1,0,849,5,1,MIX,5,331,NA,NA,NA,NA,NA,NA
673,5,6,1,1,1,8,2,7,2,1,0,2322,2,1,MIX,5,7,2,1,332,333,334,335
674,5,6,2,2,1,2,0,0,1,1,0,1209,11,1,MIX,4,336,NA,NA,NA,NA,NA,NA
675,5,6,3,1,1,2,2,1,2,1,0,525,337,0,MIX,1,337,NA,NA,NA,NA,NA,NA
676,5,6,4,1,1,8,8,1,2,1,0,594,339,0,MIX,4,8,2,7,338,339,340,341
677,5,6,5,1,1,2,2,1,2,1,0,758,4,1,MIX,4,342,NA,NA,NA,NA,NA,NA
678,5,6,6,2,1,4,0,0,1,1,0,601,16,1,MIX,3,8,343,344,NA,NA,NA,NA
679,5,6,7,2,1,8,0,0,2,1,1,579,349,0,MIX,5,1,2,3,345,346,347,348
680,5,6,8,1,1,8,6,3,1,1,1,751,7,1,MIX,2,7,5,8,350,351,352,353
681,5,6,9,1,1,2,2,1,2,1,0,685,354,0,MIX,6,354,NA,NA,NA,NA,NA,NA
682,5,6,10,2,1,8,0,0,1,1,0,932,15,1,MIX,1,4,8,6,355,356,357,358
683,5,6,11,1,1,4,3,2,2,1,0,1416,4,1,MIX,4,6,359,360,NA,NA,NA,NA
684,5,6,12,1,1,4,4,1,2,1,0,593,361,0,MIX,1,8,361,362,NA,NA,NA,NA
685,5,6,13,2,1,2,0,0,2,1,1,845,364,0,MIX,6,363,NA,NA,NA,NA,NA,NA
686,5,6,14,2,1,4,0,0,2,1,1,868,5,1,MIX,2,8,365,366,NA,NA,NA,NA
687,5,6,15,1,1,4,2,3,2,1,0,883,368,0,MIX,5,7,367,368,NA,NA,NA,NA
688,5,6,16,2,1,2,0,0,1,1,0,1035,370,0,MIX,4,369,NA,NA,NA,NA,NA,NA
689,5,6,17,2,1,8,0,0,1,1,0,587,375,0,MIX,6,8,7,4,371,372,373,374
690,5,6,18,1,1,2,1,2,1,1,1,864,5,1,MIX,5,376,NA,NA,NA,NA,NA,NA
691,5,6,19,1,1,8,6,3,1,1,1,729,379,0,MIX,8,5,6,4,377,378,379,380
692,5,6,20,1,1,2,2,1,2,1,0,617,1,1,MIX,1,381,NA,NA,NA,NA,NA,NA
693,5,6,21,1,1,8,3,6,2,1,0,809,384,0,MIX,5,8,7,2,382,383,384,385
694,5,6,22,2,1,2,0,0,2,1,1,964,387,0,MIX,8,386,NA,NA,NA,NA,NA,NA
695,5,6,23,1,1,8,6,3,2,1,0,1073,388,0,MIX,7,1,2,4,388,389,390,391
696,5,6,24,1,1,2,2,1,1,1,1,1994,3,1,MIX,3,392,NA,NA,NA,NA,NA,NA
697,5,7,1,2,1,2,0,0,1,1,0,1731,394,0,MIX,2,393,NA,NA,NA,NA,NA,NA
698,5,7,2,1,1,8,5,4,2,1,0,944,3,1,MIX,8,5,3,4,395,396,397,398
699,5,7,3,1,1,8,3,6,2,1,0,1231,4,1,MIX,3,6,8,4,399,400,401,402
700,5,7,4,2,1,2,0,0,2,1,1,969,7,1,MIX,8,403,NA,NA,NA,NA,NA,NA
701,5,7,5,2,1,2,0,0,2,1,1,806,405,0,MIX,6,404,NA,NA,NA,NA,NA,NA
702,5,7,6,1,1,2,2,1,1,1,1,714,2,1,MIX,2,406,NA,NA,NA,NA,NA,NA
703,5,7,7,1,1,8,7,2,1,1,1,863,408,0,MIX,7,8,3,5,407,408,409,410
704,5,7,8,1,1,2,1,2,2,1,0,641,4,1,MIX,4,411,NA,NA,NA,NA,NA,NA
705,5,7,9,2,1,2,0,0,1,1,0,491,11,1,MIX,5,412,NA,NA,NA,NA,NA,NA
706,5,7,10,2,1,4,0,0,1,1,0,542,415,0,MIX,1,2,413,414,NA,NA,NA,NA
707,5,7,11,2,1,4,0,0,1,1,0,610,16,1,MIX,2,3,416,417,NA,NA,NA,NA
708,5,7,12,2,1,2,0,0,1,1,0,438,13,1,MIX,7,418,NA,NA,NA,NA,NA,NA
709,5,7,13,2,1,4,0,0,1,1,0,509,421,0,MIX,6,8,419,420,NA,NA,NA,NA
710,5,7,14,1,1,4,2,3,1,0,0,897,2,1,MIX,7,2,422,423,NA,NA,NA,NA
711,5,7,15,2,1,2,0,0,1,1,0,488,14,1,MIX,6,424,NA,NA,NA,NA,NA,NA
712,5,7,16,1,1,2,1,2,1,1,1,465,1,1,MIX,1,425,NA,NA,NA,NA,NA,NA
713,5,7,17,1,1,2,1,2,2,1,0,715,426,0,MIX,6,426,NA,NA,NA,NA,NA,NA
714,5,7,18,2,1,2,0,0,2,1,1,553,8,1,MIX,6,427,NA,NA,NA,NA,NA,NA
715,5,7,19,2,1,4,0,0,2,1,1,666,430,0,MIX,7,1,428,429,NA,NA,NA,NA
716,5,7,20,1,1,8,6,3,2,1,0,723,5,1,MIX,4,2,5,8,431,432,433,434
717,5,7,21,1,1,4,3,2,1,1,1,599,2,1,MIX,2,5,435,436,NA,NA,NA,NA
718,5,7,22,2,1,4,0,0,1,1,0,640,439,0,MIX,3,7,437,438,NA,NA,NA,NA
719,5,7,23,1,1,4,1,4,1,1,1,688,2,1,MIX,4,2,440,441,NA,NA,NA,NA
720,5,7,24,2,1,4,0,0,1,1,0,613,444,0,MIX,6,8,442,443,NA,NA,NA,NA
721,5,8,1,1,1,4,3,2,1,1,1,1033,446,0,MIX,7,6,445,446,NA,NA,NA,NA
722,5,8,2,2,1,2,0,0,2,1,1,539,4,1,MIX,3,447,NA,NA,NA,NA,NA,NA
723,5,8,3,2,1,4,0,0,2,1,1,565,450,0,MIX,4,3,448,449,NA,NA,NA,NA
724,5,8,4,1,1,8,5,4,1,1,1,616,8,1,MIX,8,2,3,6,451,452,453,454
725,5,8,5,2,1,4,0,0,1,1,0,784,457,0,MIX,7,8,455,456,NA,NA,NA,NA
726,5,8,6,2,1,8,0,0,2,1,1,634,462,0,MIX,6,8,7,5,458,459,460,461
727,5,8,7,1,1,8,4,5,2,1,0,620,466,0,MIX,6,5,8,4,463,464,465,466
728,5,8,8,1,1,2,2,1,1,1,1,424,6,1,MIX,6,467,NA,NA,NA,NA,NA,NA
729,5,8,9,2,1,8,0,0,1,1,0,1081,472,0,MIX,5,8,7,6,468,469,470,471
730,5,8,10,1,1,4,4,1,1,1,1,407,473,0,MIX,2,4,473,474,NA,NA,NA,NA
731,5,8,11,2,1,8,0,0,2,1,1,793,3,1,MIX,3,6,7,1,475,476,477,478
732,5,8,12,1,1,2,2,1,1,1,1,678,4,1,MIX,4,479,NA,NA,NA,NA,NA,NA
733,5,8,13,2,1,8,0,0,2,1,1,757,484,0,MIX,3,8,6,7,480,481,482,483
734,5,8,14,2,1,2,0,0,2,1,1,890,5,1,MIX,7,485,NA,NA,NA,NA,NA,NA
735,5,8,15,1,1,8,2,7,2,1,0,825,2,1,MIX,3,2,6,1,486,487,488,489
736,5,8,16,1,1,4,1,4,2,1,0,1201,490,0,MIX,4,7,490,491,NA,NA,NA,NA
737,5,8,17,2,1,8,0,0,2,1,1,1476,496,0,MIX,7,5,3,1,492,493,494,495
738,5,8,18,1,1,4,2,3,2,1,0,994,1,1,MIX,1,5,497,498,NA,NA,NA,NA
739,5,8,19,1,1,4,1,4,1,1,1,1028,500,0,MIX,5,4,499,500,NA,NA,NA,NA
740,5,8,20,2,1,8,0,0,1,1,0,956,505,0,MIX,8,6,7,3,501,502,503,504
741,5,8,21,1,1,2,1,2,1,1,1,603,4,1,MIX,4,506,NA,NA,NA,NA,NA,NA
742,5,8,22,2,1,2,0,0,1,1,0,1527,14,1,MIX,2,507,NA,NA,NA,NA,NA,NA
743,5,8,23,1,1,4,4,1,1,1,1,683,4,1,MIX,4,1,508,509,NA,NA,NA,NA
744,5,8,24,2,1,8,0,0,1,1,0,746,514,0,MIX,1,2,6,8,510,511,512,513
745,5,9,1,2,1,2,0,0,2,1,1,640,3,1,MIX,7,515,NA,NA,NA,NA,NA,NA
746,5,9,2,1,1,2,1,2,2,1,0,763,6,1,MIX,6,516,NA,NA,NA,NA,NA,NA
747,5,9,3,1,1,4,3,2,1,1,1,733,518,0,MIX,6,3,517,518,NA,NA,NA,NA
748,5,9,4,2,1,8,0,0,2,1,1,916,6,1,MIX,1,7,4,5,519,520,521,522
749,5,9,5,2,1,4,0,0,2,1,1,945,8,1,MIX,4,1,523,524,NA,NA,NA,NA
750,5,9,6,1,1,8,3,6,2,1,0,846,528,0,MIX,1,8,5,4,525,526,527,528
751,5,9,7,2,1,2,0,0,1,1,0,2601,9,1,MIX,7,529,NA,NA,NA,NA,NA,NA
752,5,9,8,2,1,4,0,0,1,1,0,2091,11,1,MIX,5,2,530,531,NA,NA,NA,NA
753,5,9,9,1,1,8,2,7,1,1,1,835,534,0,MIX,4,1,3,8,532,533,534,535
754,5,9,10,2,1,2,0,0,1,1,0,517,15,1,MIX,5,536,NA,NA,NA,NA,NA,NA
755,5,9,11,2,1,4,0,0,1,1,0,641,539,0,MIX,5,6,537,538,NA,NA,NA,NA
756,5,9,12,2,1,8,0,0,2,1,1,1242,6,1,MIX,7,2,4,6,540,541,542,543
757,5,9,13,2,1,2,0,0,2,1,1,2700,545,0,MIX,2,544,NA,NA,NA,NA,NA,NA
758,5,9,14,2,1,2,0,0,1,1,0,1189,15,1,MIX,1,546,NA,NA,NA,NA,NA,NA
759,5,9,15,1,1,4,3,2,2,1,0,742,1,1,MIX,2,1,547,548,NA,NA,NA,NA
760,5,9,16,2,1,4,0,0,2,1,1,1122,7,1,MIX,6,8,549,550,NA,NA,NA,NA
761,5,9,17,2,1,8,0,0,2,1,1,975,555,0,MIX,3,6,7,8,551,552,553,554
762,5,9,18,2,1,4,0,0,2,1,1,584,558,0,MIX,3,4,556,557,NA,NA,NA,NA
763,5,9,19,1,1,2,2,1,2,1,0,757,7,1,MIX,7,559,NA,NA,NA,NA,NA,NA
764,5,9,20,1,1,4,3,2,2,1,0,688,561,0,MIX,7,3,560,561,NA,NA,NA,NA
765,5,9,21,1,1,4,1,4,1,1,1,677,562,0,MIX,3,5,562,563,NA,NA,NA,NA
766,5,9,22,2,1,4,0,0,1,1,0,1107,10,1,MIX,7,4,564,565,NA,NA,NA,NA
767,5,9,23,2,1,2,0,0,1,1,0,946,567,0,MIX,1,566,NA,NA,NA,NA,NA,NA
768,5,9,24,1,1,8,5,4,2,1,0,816,1,1,MIX,3,8,5,1,568,569,570,571
769,6,2,1,2,1,2,0,0,1,1,0,780,69,0,MIX,7,68,NA,NA,NA,NA,NA,NA
770,6,2,2,2,1,8,0,0,2,0,0,894,74,0,MIX,2,4,8,6,70,71,72,73
771,6,2,3,2,1,8,0,0,1,1,0,828,10,1,MIX,8,4,1,5,75,76,77,78
772,6,2,4,2,1,4,0,0,2,1,1,644,81,0,MIX,1,6,79,80,NA,NA,NA,NA
773,6,2,5,2,1,4,0,0,2,0,0,802,84,0,MIX,6,4,82,83,NA,NA,NA,NA
774,6,2,6,2,1,2,0,0,2,1,1,854,86,0,MIX,6,85,NA,NA,NA,NA,NA,NA
775,6,2,7,2,1,4,0,0,1,1,0,619,89,0,MIX,6,3,87,88,NA,NA,NA,NA
776,6,2,8,2,1,4,0,0,2,1,1,682,92,0,MIX,2,8,90,91,NA,NA,NA,NA
777,6,2,9,2,1,2,0,0,1,1,0,1234,94,0,MIX,1,93,NA,NA,NA,NA,NA,NA
778,6,2,10,2,1,4,0,0,1,1,0,824,15,1,MIX,3,6,95,96,NA,NA,NA,NA
779,6,2,11,1,1,8,3,6,2,1,0,633,5,1,MIX,4,8,5,1,97,98,99,100
780,6,2,12,1,1,8,6,3,2,1,0,658,3,1,MIX,3,8,4,1,101,102,103,104
781,6,2,13,1,1,8,4,5,2,0,1,840,107,0,MIX,7,5,1,2,105,106,107,108
782,6,2,14,1,1,4,1,4,2,0,1,799,8,1,MIX,7,8,109,110,NA,NA,NA,NA
783,6,2,15,1,1,2,1,2,2,1,0,818,8,1,MIX,8,111,NA,NA,NA,NA,NA,NA
784,6,2,16,2,1,8,0,0,2,1,1,1043,7,1,MIX,2,8,3,1,112,113,114,115
785,6,2,17,2,1,8,0,0,2,0,0,1148,10,1,MIX,2,7,1,6,116,117,118,119
786,6,2,18,1,1,2,1,2,1,1,1,673,120,0,MIX,1,120,NA,NA,NA,NA,NA,NA
787,6,2,19,2,1,2,0,0,2,1,1,506,2,1,MIX,5,121,NA,NA,NA,NA,NA,NA
788,6,2,20,1,1,2,1,2,2,1,0,585,8,1,MIX,8,122,NA,NA,NA,NA,NA,NA
789,6,2,21,1,1,8,4,5,1,1,1,596,6,1,MIX,7,6,2,3,123,124,125,126
790,6,2,22,1,1,2,1,2,2,1,0,944,3,1,MIX,3,127,NA,NA,NA,NA,NA,NA
791,6,2,23,1,1,2,2,1,2,1,0,877,128,0,MIX,2,128,NA,NA,NA,NA,NA,NA
792,6,2,24,2,1,8,0,0,1,1,0,714,133,0,MIX,4,8,1,3,129,130,131,132
793,6,3,1,2,1,2,0,0,1,1,0,784,135,0,MIX,3,134,NA,NA,NA,NA,NA,NA
794,6,3,2,2,1,2,0,0,1,1,0,580,137,0,MIX,1,136,NA,NA,NA,NA,NA,NA
795,6,3,3,1,1,2,2,1,2,0,1,416,4,1,MIX,4,138,NA,NA,NA,NA,NA,NA
796,6,3,4,1,1,4,1,4,1,0,0,823,3,1,MIX,3,6,139,140,NA,NA,NA,NA
797,6,3,5,1,1,8,6,3,1,1,1,760,8,1,MIX,8,7,3,5,141,142,143,144
798,6,3,6,2,1,2,0,0,2,1,1,733,146,0,MIX,8,145,NA,NA,NA,NA,NA,NA
799,6,3,7,2,1,2,0,0,2,1,1,819,148,0,MIX,7,147,NA,NA,NA,NA,NA,NA
800,6,3,8,1,1,4,3,2,1,1,1,715,150,0,MIX,5,3,149,150,NA,NA,NA,NA
801,6,3,9,1,1,2,1,2,1,1,1,401,151,0,MIX,7,151,NA,NA,NA,NA,NA,NA
802,6,3,10,2,1,8,0,0,2,0,0,642,16,1,MIX,7,8,1,3,152,153,154,155
803,6,3,11,2,1,2,0,0,1,1,0,636,157,0,MIX,2,156,NA,NA,NA,NA,NA,NA
804,6,3,12,2,1,8,0,0,2,0,0,1142,11,1,MIX,7,6,2,4,158,159,160,161
805,6,3,13,1,1,4,1,4,1,0,0,896,162,0,MIX,8,7,162,163,NA,NA,NA,NA
806,6,3,14,1,1,2,1,2,1,1,1,655,2,1,MIX,2,164,NA,NA,NA,NA,NA,NA
807,6,3,15,1,1,8,1,8,1,1,1,680,6,1,MIX,6,8,1,4,165,166,167,168
808,6,3,16,2,1,2,0,0,1,1,0,784,15,1,MIX,3,169,NA,NA,NA,NA,NA,NA
809,6,3,17,2,1,2,0,0,2,1,1,581,171,0,MIX,2,170,NA,NA,NA,NA,NA,NA
810,6,3,18,2,1,4,0,0,1,1,0,629,11,1,MIX,5,3,172,173,NA,NA,NA,NA
811,6,3,19,2,1,8,0,0,1,1,0,1021,178,0,MIX,2,7,1,6,174,175,176,177
812,6,3,20,2,1,8,0,0,2,1,1,709,1,1,MIX,4,3,8,6,179,180,181,182
813,6,3,21,1,1,8,6,3,1,1,1,587,8,1,MIX,2,5,4,8,183,184,185,186
814,6,3,22,1,1,2,1,2,2,1,0,775,187,0,MIX,7,187,NA,NA,NA,NA,NA,NA
815,6,3,23,1,1,8,8,1,2,1,0,569,188,0,MIX,6,2,4,7,188,189,190,191
816,6,3,24,2,1,4,0,0,1,1,0,652,194,0,MIX,3,2,192,193,NA,NA,NA,NA
817,6,4,1,1,1,8,2,7,1,1,1,794,5,1,MIX,8,3,5,2,195,196,197,198
818,6,4,2,1,1,8,5,4,2,1,0,680,7,1,MIX,7,5,2,3,199,200,201,202
819,6,4,3,2,1,2,0,0,2,1,1,1936,3,1,MIX,6,203,NA,NA,NA,NA,NA,NA
820,6,4,4,1,1,4,2,3,2,1,0,619,7,1,MIX,5,7,204,205,NA,NA,NA,NA
821,6,4,5,2,1,2,0,0,2,1,1,838,207,0,MIX,2,206,NA,NA,NA,NA,NA,NA
822,6,4,6,1,1,2,1,2,2,1,0,856,208,0,MIX,7,208,NA,NA,NA,NA,NA,NA
823,6,4,7,2,1,8,0,0,2,1,1,631,213,0,MIX,1,4,8,6,209,210,211,212
824,6,4,8,1,1,8,3,6,1,1,1,1120,8,1,MIX,8,3,6,5,214,215,216,217
825,6,4,9,1,1,8,6,3,1,0,0,869,218,0,MIX,6,1,3,4,218,219,220,221
826,6,4,10,2,1,2,0,0,2,1,1,1781,223,0,MIX,5,222,NA,NA,NA,NA,NA,NA
827,6,4,11,1,1,2,2,1,2,1,0,1361,4,1,MIX,4,224,NA,NA,NA,NA,NA,NA
828,6,4,12,2,1,8,0,0,2,0,0,813,14,1,MIX,3,6,4,8,225,226,227,228
829,6,4,13,1,1,4,3,2,2,1,0,706,1,1,MIX,8,1,229,230,NA,NA,NA,NA
830,6,4,14,2,1,4,0,0,2,1,1,717,4,1,MIX,5,2,231,232,NA,NA,NA,NA
831,6,4,15,2,1,8,0,0,1,0,1,851,4,1,MIX,6,3,8,5,233,234,235,236
832,6,4,16,1,1,8,8,1,2,1,0,529,7,1,MIX,4,2,6,7,237,238,239,240
833,6,4,17,1,1,4,3,2,2,1,0,613,8,1,MIX,8,4,241,242,NA,NA,NA,NA
834,6,4,18,2,1,2,0,0,1,1,0,607,244,0,MIX,2,243,NA,NA,NA,NA,NA,NA
835,6,4,19,1,1,4,3,2,1,1,1,815,246,0,MIX,3,6,245,246,NA,NA,NA,NA
836,6,4,20,1,1,2,1,2,1,1,1,546,247,0,MIX,7,247,NA,NA,NA,NA,NA,NA
837,6,4,21,1,1,2,1,2,1,1,1,640,7,1,MIX,7,248,NA,NA,NA,NA,NA,NA
838,6,4,22,1,1,2,2,1,1,1,1,538,3,1,MIX,3,249,NA,NA,NA,NA,NA,NA
839,6,4,23,1,1,8,4,5,1,1,1,583,251,0,MIX,6,1,4,2,250,251,252,253
840,6,4,24,1,1,2,1,2,2,1,0,547,254,0,MIX,5,254,NA,NA,NA,NA,NA,NA
841,6,5,1,1,1,2,2,1,2,1,0,360,255,0,MIX,1,255,NA,NA,NA,NA,NA,NA
842,6,5,2,1,1,2,2,1,2,1,0,413,256,0,MIX,3,256,NA,NA,NA,NA,NA,NA
843,6,5,3,1,1,4,1,4,1,0,0,676,7,1,MIX,7,1,257,258,NA,NA,NA,NA
844,6,5,4,2,1,4,0,0,2,0,0,658,261,0,MIX,2,6,259,260,NA,NA,NA,NA
845,6,5,5,1,1,4,4,1,1,1,1,1072,262,0,MIX,1,4,262,263,NA,NA,NA,NA
846,6,5,6,2,1,2,0,0,2,1,1,1049,4,1,MIX,1,264,NA,NA,NA,NA,NA,NA
847,6,5,7,2,1,8,0,0,2,1,1,961,1,1,MIX,4,8,2,1,265,266,267,268
848,6,5,8,2,1,8,0,0,2,1,1,652,3,1,MIX,8,5,3,6,269,270,271,272
849,6,5,9,1,1,4,2,3,1,0,0,651,273,0,MIX,8,4,273,274,NA,NA,NA,NA
850,6,5,10,2,1,8,0,0,2,1,1,706,3,1,MIX,2,1,7,6,275,276,277,278
851,6,5,11,2,1,8,0,0,1,1,0,887,12,1,MIX,5,6,4,1,279,280,281,282
852,6,5,12,1,1,8,2,7,2,0,1,1045,4,1,MIX,4,6,8,5,283,284,285,286
853,6,5,13,1,1,8,5,4,1,0,0,911,7,1,MIX,1,4,7,3,287,288,289,290
854,6,5,14,1,1,2,2,1,2,1,0,430,291,0,MIX,7,291,NA,NA,NA,NA,NA,NA
855,6,5,15,2,1,8,0,0,1,1,0,749,9,1,MIX,5,3,7,2,292,293,294,295
856,6,5,16,1,1,2,2,1,2,0,1,420,296,0,MIX,2,296,NA,NA,NA,NA,NA,NA
857,6,5,17,1,1,2,1,2,1,1,1,742,6,1,MIX,6,297,NA,NA,NA,NA,NA,NA
858,6,5,18,1,1,8,6,3,2,1,0,843,300,0,MIX,1,5,2,6,298,299,300,301
859,6,5,19,1,1,2,1,2,2,1,0,2765,2,1,MIX,2,302,NA,NA,NA,NA,NA,NA
860,6,5,20,1,1,8,3,6,2,1,0,608,6,1,MIX,5,1,8,6,303,304,305,306
861,6,5,21,2,1,2,0,0,1,1,0,699,13,1,MIX,3,307,NA,NA,NA,NA,NA,NA
862,6,5,22,2,1,4,0,0,2,1,1,680,6,1,MIX,7,4,308,309,NA,NA,NA,NA
863,6,5,23,1,1,2,1,2,1,1,1,545,8,1,MIX,8,310,NA,NA,NA,NA,NA,NA
864,6,5,24,2,1,8,0,0,2,1,1,732,8,1,MIX,1,4,2,6,311,312,313,314
865,6,6,1,2,1,8,0,0,1,1,0,646,319,0,MIX,7,4,6,1,315,316,317,318
866,6,6,2,2,1,8,0,0,1,0,1,668,5,1,MIX,7,3,1,2,320,321,322,323
867,6,6,3,2,1,8,0,0,1,1,0,915,328,0,MIX,1,4,2,7,324,325,326,327
868,6,6,4,1,1,2,2,1,2,0,1,770,329,0,MIX,2,329,NA,NA,NA,NA,NA,NA
869,6,6,5,2,1,2,0,0,2,1,1,644,331,0,MIX,1,330,NA,NA,NA,NA,NA,NA
870,6,6,6,1,1,8,7,2,1,1,1,622,5,1,MIX,2,5,6,1,332,333,334,335
871,6,6,7,2,1,8,0,0,2,1,1,1607,2,1,MIX,1,3,5,4,336,337,338,339
872,6,6,8,1,1,4,2,3,2,1,0,592,2,1,MIX,7,2,340,341,NA,NA,NA,NA
873,6,6,9,2,1,4,0,0,1,1,0,1936,13,1,MIX,1,8,342,343,NA,NA,NA,NA
874,6,6,10,2,1,2,0,0,1,0,1,852,345,0,MIX,6,344,NA,NA,NA,NA,NA,NA
875,6,6,11,2,1,4,0,0,2,1,1,1577,2,1,MIX,4,2,346,347,NA,NA,NA,NA
876,6,6,12,2,1,8,0,0,1,1,0,2790,352,0,MIX,3,2,5,1,348,349,350,351
877,6,6,13,1,1,8,6,3,1,0,0,1018,356,0,MIX,7,2,1,6,353,354,355,356
878,6,6,14,1,1,2,1,2,1,1,1,1253,3,1,MIX,3,357,NA,NA,NA,NA,NA,NA
879,6,6,15,1,1,2,1,2,1,1,1,966,358,0,MIX,7,358,NA,NA,NA,NA,NA,NA
880,6,6,16,1,1,4,2,3,1,0,0,1192,359,0,MIX,8,6,359,360,NA,NA,NA,NA
881,6,6,17,2,1,8,0,0,2,1,1,1691,5,1,MIX,4,1,2,7,361,362,363,364
882,6,6,18,2,1,4,0,0,1,1,0,1520,11,1,MIX,6,2,365,366,NA,NA,NA,NA
883,6,6,19,1,1,8,6,3,1,1,1,598,3,1,MIX,4,6,3,7,367,368,369,370
884,6,6,20,2,1,8,0,0,2,0,0,1952,14,1,MIX,4,1,6,2,371,372,373,374
885,6,6,21,2,1,2,0,0,2,1,1,1253,376,0,MIX,2,375,NA,NA,NA,NA,NA,NA
886,6,6,22,2,1,4,0,0,1,1,0,1051,11,1,MIX,6,8,377,378,NA,NA,NA,NA
887,6,6,23,1,1,2,1,2,1,1,1,1044,8,1,MIX,8,379,NA,NA,NA,NA,NA,NA
888,6,6,24,1,1,2,2,1,1,1,1,558,380,0,MIX,3,380,NA,NA,NA,NA,NA,NA
889,6,7,1,2,1,4,0,0,2,1,1,609,7,1,MIX,5,6,381,382,NA,NA,NA,NA
890,6,7,2,1,1,2,1,2,2,1,0,540,6,1,MIX,6,383,NA,NA,NA,NA,NA,NA
891,6,7,3,2,1,8,0,0,1,1,0,807,10,1,MIX,3,5,8,4,384,385,386,387
892,6,7,4,1,1,8,3,6,1,0,0,793,388,0,MIX,6,2,1,7,388,389,390,391
893,6,7,5,2,1,4,0,0,1,1,0,865,394,0,MIX,2,7,392,393,NA,NA,NA,NA
894,6,7,6,2,1,8,0,0,2,1,1,657,399,0,MIX,8,2,1,3,395,396,397,398
895,6,7,7,1,1,8,7,2,2,1,0,696,6,1,MIX,2,6,3,8,400,401,402,403
896,6,7,8,2,1,4,0,0,1,0,1,1733,4,1,MIX,3,4,404,405,NA,NA,NA,NA
897,6,7,9,2,1,2,0,0,2,1,1,2243,407,0,MIX,7,406,NA,NA,NA,NA,NA,NA
898,6,7,10,2,1,4,0,0,2,1,1,977,410,0,MIX,7,4,408,409,NA,NA,NA,NA
899,6,7,11,1,1,4,3,2,1,1,1,675,8,1,MIX,2,8,411,412,NA,NA,NA,NA
900,6,7,12,1,1,4,4,1,2,0,1,544,413,0,MIX,8,5,413,414,NA,NA,NA,NA
901,6,7,13,1,1,8,1,8,1,1,1,1101,417,0,MIX,7,2,1,3,415,416,417,418
902,6,7,14,2,1,2,0,0,1,0,1,2739,420,0,MIX,3,419,NA,NA,NA,NA,NA,NA
903,6,7,15,1,1,4,2,3,1,1,1,1421,4,1,MIX,5,4,421,422,NA,NA,NA,NA
904,6,7,16,1,1,8,2,7,2,1,0,855,8,1,MIX,5,6,7,8,423,424,425,426
905,6,7,17,2,1,8,0,0,2,0,0,3270,14,1,MIX,4,1,5,8,427,428,429,430
906,6,7,18,1,1,8,3,6,2,1,0,933,6,1,MIX,5,2,6,1,431,432,433,434
907,6,7,19,1,1,8,2,7,1,0,0,1393,438,0,MIX,7,6,2,1,435,436,437,438
908,6,7,20,2,1,2,0,0,1,1,0,1725,11,1,MIX,7,439,NA,NA,NA,NA,NA,NA
909,6,7,21,2,1,8,0,0,2,1,1,6026,444,0,MIX,6,5,1,2,440,441,442,443
910,6,7,22,1,1,8,5,4,1,0,0,971,447,0,MIX,7,1,2,8,445,446,447,448
911,6,7,23,1,1,2,1,2,2,1,0,2392,449,0,MIX,7,449,NA,NA,NA,NA,NA,NA
912,6,7,24,2,1,2,0,0,2,1,1,2219,451,0,MIX,1,450,NA,NA,NA,NA,NA,NA
913,6,8,1,2,1,4,0,0,2,1,1,614,1,1,MIX,1,8,452,453,NA,NA,NA,NA
914,6,8,2,2,1,8,0,0,2,1,1,543,7,1,MIX,2,3,5,4,454,455,456,457
915,6,8,3,1,1,2,2,1,2,1,0,557,458,0,MIX,4,458,NA,NA,NA,NA,NA,NA
916,6,8,4,1,1,8,4,5,2,1,0,596,6,1,MIX,3,2,6,5,459,460,461,462
917,6,8,5,1,1,8,5,4,2,0,1,734,464,0,MIX,2,5,1,7,463,464,465,466
918,6,8,6,1,1,2,2,1,1,1,1,436,2,1,MIX,2,467,NA,NA,NA,NA,NA,NA
919,6,8,7,1,1,8,5,4,2,0,1,661,468,0,MIX,3,6,1,5,468,469,470,471
920,6,8,8,2,1,4,0,0,1,0,1,4050,474,0,MIX,7,2,472,473,NA,NA,NA,NA
921,6,8,9,1,1,4,1,4,2,1,0,1209,475,0,MIX,7,3,475,476,NA,NA,NA,NA
922,6,8,10,1,1,8,8,1,1,1,1,1002,8,1,MIX,4,8,3,2,477,478,479,480
923,6,8,11,2,1,4,0,0,1,1,0,1049,483,0,MIX,7,8,481,482,NA,NA,NA,NA
924,6,8,12,1,1,2,2,1,2,1,0,818,1,1,MIX,1,484,NA,NA,NA,NA,NA,NA
925,6,8,13,1,1,8,1,8,2,0,1,1172,8,1,MIX,5,2,8,4,485,486,487,488
926,6,8,14,2,1,4,0,0,2,1,1,1197,491,0,MIX,2,7,489,490,NA,NA,NA,NA
927,6,8,15,1,1,2,1,2,1,1,1,752,8,1,MIX,8,492,NA,NA,NA,NA,NA,NA
928,6,8,16,1,1,4,4,1,1,1,1,587,494,0,MIX,8,7,493,494,NA,NA,NA,NA
929,6,8,17,1,1,8,2,7,1,0,0,1429,498,0,MIX,4,6,1,7,495,496,497,498
930,6,8,18,2,1,8,0,0,2,1,1,1822,4,1,MIX,1,4,5,7,499,500,501,502
931,6,8,19,2,1,2,0,0,1,1,0,649,504,0,MIX,6,503,NA,NA,NA,NA,NA,NA
932,6,8,20,1,1,4,3,2,2,1,0,775,506,0,MIX,6,1,505,506,NA,NA,NA,NA
933,6,8,21,1,1,8,1,8,2,0,1,938,2,1,MIX,4,1,8,2,507,508,509,510
934,6,8,22,1,1,2,1,2,1,1,1,1193,511,0,MIX,2,511,NA,NA,NA,NA,NA,NA
935,6,8,23,1,1,2,1,2,2,1,0,1213,4,1,MIX,4,512,NA,NA,NA,NA,NA,NA
936,6,8,24,2,1,4,0,0,2,1,1,1380,5,1,MIX,6,5,513,514,NA,NA,NA,NA
937,6,9,1,2,1,4,0,0,1,1,0,1072,13,1,MIX,6,3,515,516,NA,NA,NA,NA
938,6,9,2,2,1,2,0,0,2,1,1,808,518,0,MIX,4,517,NA,NA,NA,NA,NA,NA
939,6,9,3,1,1,2,1,2,1,0,0,907,5,1,MIX,5,519,NA,NA,NA,NA,NA,NA
940,6,9,4,1,1,8,2,7,2,1,0,634,1,1,MIX,5,1,7,3,520,521,522,523
941,6,9,5,1,1,8,8,1,2,1,0,482,7,1,MIX,5,4,6,7,524,525,526,527
942,6,9,6,2,1,8,0,0,2,1,1,3917,532,0,MIX,4,6,3,7,528,529,530,531
943,6,9,7,2,1,4,0,0,1,1,0,3241,535,0,MIX,3,4,533,534,NA,NA,NA,NA
944,6,9,8,2,1,8,0,0,2,1,1,1400,540,0,MIX,1,2,8,4,536,537,538,539
945,6,9,9,1,1,4,4,1,2,1,0,745,541,0,MIX,1,5,541,542,NA,NA,NA,NA
946,6,9,10,1,1,2,1,2,2,1,0,607,6,1,MIX,6,543,NA,NA,NA,NA,NA,NA
947,6,9,11,1,1,2,2,1,1,1,1,522,544,0,MIX,2,544,NA,NA,NA,NA,NA,NA
948,6,9,12,2,1,2,0,0,2,1,1,1255,546,0,MIX,6,545,NA,NA,NA,NA,NA,NA
949,6,9,13,2,1,8,0,0,2,1,1,546,551,0,MIX,7,3,8,4,547,548,549,550
950,6,9,14,1,1,4,3,2,1,1,1,501,552,0,MIX,6,1,552,553,NA,NA,NA,NA
951,6,9,15,2,1,4,0,0,2,1,1,648,556,0,MIX,1,6,554,555,NA,NA,NA,NA
952,6,9,16,1,1,2,2,1,1,1,1,657,7,1,MIX,7,557,NA,NA,NA,NA,NA,NA
953,6,9,17,1,1,2,1,2,1,1,1,539,5,1,MIX,5,558,NA,NA,NA,NA,NA,NA
954,6,9,18,1,1,2,1,2,1,1,1,632,7,1,MIX,7,559,NA,NA,NA,NA,NA,NA
955,6,9,19,2,1,2,0,0,2,1,1,530,5,1,MIX,3,560,NA,NA,NA,NA,NA,NA
956,6,9,20,2,1,4,0,0,2,0,0,884,563,0,MIX,7,2,561,562,NA,NA,NA,NA
957,6,9,21,1,1,4,4,1,2,1,0,585,8,1,MIX,6,8,564,565,NA,NA,NA,NA
958,6,9,22,1,1,4,4,1,2,0,1,1034,3,1,MIX,7,3,566,567,NA,NA,NA,NA
959,6,9,23,2,1,8,0,0,2,1,1,740,7,1,MIX,2,7,5,3,568,569,570,571
960,6,9,24,2,1,8,0,0,1,1,0,917,12,1,MIX,1,4,2,8,572,573,574,575
961,7,2,1,1,1,8,3,6,2,0,1,968,1,1,MIX,6,4,1,3,77,78,79,80
962,7,2,2,1,1,4,3,2,1,1,1,745,82,0,MIX,5,8,81,82,NA,NA,NA,NA
963,7,2,3,2,1,4,0,0,2,1,1,739,8,1,MIX,1,5,83,84,NA,NA,NA,NA
964,7,2,4,1,1,2,1,2,2,1,0,568,3,1,MIX,3,85,NA,NA,NA,NA,NA,NA
965,7,2,5,2,1,4,0,0,1,1,0,727,88,0,MIX,7,1,86,87,NA,NA,NA,NA
966,7,2,6,1,1,2,2,1,1,1,1,862,5,1,MIX,5,89,NA,NA,NA,NA,NA,NA
967,7,2,7,2,1,4,0,0,2,0,0,772,14,1,MIX,3,5,90,91,NA,NA,NA,NA
968,7,2,8,1,1,4,4,1,2,1,0,973,1,1,MIX,5,1,92,93,NA,NA,NA,NA
969,7,2,9,2,1,2,0,0,2,1,1,649,95,0,MIX,4,94,NA,NA,NA,NA,NA,NA
970,7,2,10,1,1,2,2,1,2,1,0,418,6,1,MIX,6,96,NA,NA,NA,NA,NA,NA
971,7,2,11,1,1,4,3,2,1,1,1,601,3,1,MIX,8,3,97,98,NA,NA,NA,NA
972,7,2,12,2,1,8,0,0,1,1,0,673,103,0,MIX,5,8,2,7,99,100,101,102
973,7,2,13,2,1,8,0,0,1,1,0,614,108,0,MIX,1,4,2,8,104,105,106,107
974,7,2,14,1,1,4,4,1,2,1,0,581,2,1,MIX,2,8,109,110,NA,NA,NA,NA
975,7,2,15,2,1,4,0,0,2,1,1,613,113,0,MIX,3,6,111,112,NA,NA,NA,NA
976,7,2,16,1,1,2,1,2,2,1,0,1264,114,0,MIX,2,114,NA,NA,NA,NA,NA,NA
977,7,2,17,1,1,2,2,1,2,1,0,416,3,1,MIX,3,115,NA,NA,NA,NA,NA,NA
978,7,2,18,2,1,4,0,0,1,1,0,536,9,1,MIX,7,6,116,117,NA,NA,NA,NA
979,7,2,19,1,1,8,5,4,2,1,0,1013,121,0,MIX,8,6,2,5,118,119,120,121
980,7,2,20,2,1,2,0,0,1,1,0,543,123,0,MIX,7,122,NA,NA,NA,NA,NA,NA
981,7,2,21,1,1,2,1,2,2,0,1,733,124,0,MIX,8,124,NA,NA,NA,NA,NA,NA
982,7,2,22,2,1,4,0,0,1,1,0,616,11,1,MIX,5,6,125,126,NA,NA,NA,NA
983,7,2,23,2,1,8,0,0,2,1,1,608,131,0,MIX,5,7,6,8,127,128,129,130
984,7,2,24,1,1,4,3,2,2,1,0,1039,2,1,MIX,2,8,132,133,NA,NA,NA,NA
985,7,3,1,1,1,8,1,8,1,1,1,842,136,0,MIX,5,8,2,6,134,135,136,137
986,7,3,2,2,1,8,0,0,2,1,1,794,1,1,MIX,3,2,5,1,138,139,140,141
987,7,3,3,2,1,2,0,0,2,1,1,702,6,1,MIX,5,142,NA,NA,NA,NA,NA,NA
988,7,3,4,1,1,8,5,4,1,1,1,755,1,1,MIX,3,1,2,7,143,144,145,146
989,7,3,5,1,1,8,2,7,2,1,0,679,6,1,MIX,4,6,3,5,147,148,149,150
990,7,3,6,1,1,8,4,5,2,1,0,748,7,1,MIX,4,1,7,3,151,152,153,154
991,7,3,7,2,1,8,0,0,1,1,0,592,11,1,MIX,3,7,1,6,155,156,157,158
992,7,3,8,2,1,8,0,0,1,1,0,952,14,1,MIX,2,8,4,3,159,160,161,162
993,7,3,9,1,1,4,4,1,1,1,1,649,2,1,MIX,1,2,163,164,NA,NA,NA,NA
994,7,3,10,2,1,8,0,0,1,1,0,576,169,0,MIX,8,3,5,1,165,166,167,168
995,7,3,11,2,1,8,0,0,1,1,0,634,174,0,MIX,8,5,2,3,170,171,172,173
996,7,3,12,1,1,2,1,2,2,1,0,548,2,1,MIX,2,175,NA,NA,NA,NA,NA,NA
997,7,3,13,2,1,4,0,0,1,1,0,582,16,1,MIX,7,2,176,177,NA,NA,NA,NA
998,7,3,14,1,1,2,1,2,1,1,1,432,178,0,MIX,7,178,NA,NA,NA,NA,NA,NA
999,7,3,15,1,1,4,4,1,1,1,1,390,179,0,MIX,6,2,179,180,NA,NA,NA,NA
1000,7,3,16,2,1,2,0,0,1,1,0,954,182,0,MIX,7,181,NA,NA,NA,NA,NA,NA
1001,7,3,17,1,1,2,2,1,2,1,0,581,4,1,MIX,4,183,NA,NA,NA,NA,NA,NA
1002,7,3,18,1,1,2,1,2,1,1,1,545,8,1,MIX,8,184,NA,NA,NA,NA,NA,NA
1003,7,3,19,2,1,4,0,0,1,1,0,691,187,0,MIX,1,2,185,186,NA,NA,NA,NA
1004,7,3,20,1,1,2,2,1,1,1,1,379,188,0,MIX,6,188,NA,NA,NA,NA,NA,NA
1005,7,3,21,1,1,8,1,8,1,1,1,652,1,1,MIX,1,6,4,7,189,190,191,192
1006,7,3,22,2,1,2,0,0,1,1,0,869,194,0,MIX,6,193,NA,NA,NA,NA,NA,NA
1007,7,3,23,2,1,4,0,0,1,0,1,650,6,1,MIX,4,3,195,196,NA,NA,NA,NA
1008,7,3,24,1,1,4,1,4,1,1,1,664,8,1,MIX,8,7,197,198,NA,NA,NA,NA
1009,7,4,1,1,1,8,2,7,2,1,0,922,2,1,MIX,3,7,6,2,199,200,201,202
1010,7,4,2,2,1,2,0,0,1,1,0,617,15,1,MIX,2,203,NA,NA,NA,NA,NA,NA
1011,7,4,3,2,1,4,0,0,1,1,0,696,16,1,MIX,4,6,204,205,NA,NA,NA,NA
1012,7,4,4,1,1,8,6,3,2,1,0,733,208,0,MIX,6,7,1,2,206,207,208,209
1013,7,4,5,1,1,4,4,1,1,1,1,358,211,0,MIX,4,3,210,211,NA,NA,NA,NA
1014,7,4,6,1,1,2,1,2,2,1,0,635,6,1,MIX,6,212,NA,NA,NA,NA,NA,NA
1015,7,4,7,1,1,4,4,1,1,1,1,329,214,0,MIX,6,5,213,214,NA,NA,NA,NA
1016,7,4,8,1,1,2,2,1,2,1,0,352,215,0,MIX,5,215,NA,NA,NA,NA,NA,NA
1017,7,4,9,1,1,2,1,2,2,1,0,597,216,0,MIX,6,216,NA,NA,NA,NA,NA,NA
1018,7,4,10,1,1,8,7,2,1,1,1,478,218,0,MIX,1,2,4,7,217,218,219,220
1019,7,4,11,2,1,8,0,0,1,0,1,494,5,1,MIX,8,6,5,7,221,222,223,224
1020,7,4,12,2,1,8,0,0,2,0,0,651,13,1,MIX,4,1,8,7,225,226,227,228
1021,7,4,13,2,1,4,0,0,1,1,0,633,15,1,MIX,1,5,229,230,NA,NA,NA,NA
1022,7,4,14,1,1,4,1,4,2,1,0,631,231,0,MIX,5,2,231,232,NA,NA,NA,NA
1023,7,4,15,2,1,4,0,0,2,1,1,582,235,0,MIX,8,5,233,234,NA,NA,NA,NA
1024,7,4,16,2,1,8,0,0,2,1,1,543,240,0,MIX,7,6,8,1,236,237,238,239
1025,7,4,17,2,1,4,0,0,2,1,1,559,243,0,MIX,1,4,241,242,NA,NA,NA,NA
1026,7,4,18,2,1,4,0,0,1,1,0,481,246,0,MIX,4,8,244,245,NA,NA,NA,NA
1027,7,4,19,2,1,4,0,0,1,1,0,548,249,0,MIX,8,3,247,248,NA,NA,NA,NA
1028,7,4,20,1,1,2,2,1,2,1,0,562,6,1,MIX,6,250,NA,NA,NA,NA,NA,NA
1029,7,4,21,2,1,4,0,0,1,1,0,515,253,0,MIX,8,3,251,252,NA,NA,NA,NA
1030,7,4,22,2,1,2,0,0,1,1,0,433,255,0,MIX,7,254,NA,NA,NA,NA,NA,NA
1031,7,4,23,1,1,8,2,7,1,1,1,705,257,0,MIX,8,1,2,6,256,257,258,259
1032,7,4,24,2,1,4,0,0,2,1,1,477,1,1,MIX,6,8,260,261,NA,NA,NA,NA
1033,7,5,1,1,1,4,4,1,1,1,1,377,1,1,MIX,3,1,262,263,NA,NA,NA,NA
1034,7,5,2,1,1,2,1,2,1,1,1,589,6,1,MIX,6,264,NA,NA,NA,NA,NA,NA
1035,7,5,3,2,1,2,0,0,1,1,0,505,13,1,MIX,5,265,NA,NA,NA,NA,NA,NA
1036,7,5,4,1,1,4,2,3,1,1,1,413,266,0,MIX,6,2,266,267,NA,NA,NA,NA
1037,7,5,5,2,1,4,0,0,1,1,0,548,270,0,MIX,8,7,268,269,NA,NA,NA,NA
1038,7,5,6,2,1,4,0,0,1,1,0,469,15,1,MIX,5,7,271,272,NA,NA,NA,NA
1039,7,5,7,2,1,8,0,0,2,1,1,499,277,0,MIX,1,4,3,2,273,274,275,276
1040,7,5,8,2,1,8,0,0,1,1,0,511,282,0,MIX,6,4,8,5,278,279,280,281
1041,7,5,9,2,1,2,0,0,1,1,0,463,13,1,MIX,2,283,NA,NA,NA,NA,NA,NA
1042,7,5,10,2,1,8,0,0,1,1,0,493,14,1,MIX,7,3,2,1,284,285,286,287
1043,7,5,11,2,1,4,0,0,2,1,1,530,290,0,MIX,1,8,288,289,NA,NA,NA,NA
1044,7,5,12,2,1,8,0,0,2,1,1,878,3,1,MIX,2,6,3,8,291,292,293,294
1045,7,5,13,2,1,4,0,0,1,1,0,483,297,0,MIX,4,7,295,296,NA,NA,NA,NA
1046,7,5,14,1,1,2,1,2,2,1,0,612,298,0,MIX,7,298,NA,NA,NA,NA,NA,NA
1047,7,5,15,2,1,2,0,0,1,1,0,463,15,1,MIX,2,299,NA,NA,NA,NA,NA,NA
1048,7,5,16,1,1,4,2,3,1,1,1,516,2,1,MIX,7,2,300,301,NA,NA,NA,NA
1049,7,5,17,1,1,8,4,5,1,1,1,577,303,0,MIX,7,2,3,8,302,303,304,305
1050,7,5,18,2,1,8,0,0,1,1,0,571,310,0,MIX,2,4,6,5,306,307,308,309
1051,7,5,19,2,1,4,0,0,2,1,1,603,313,0,MIX,3,8,311,312,NA,NA,NA,NA
1052,7,5,20,1,1,8,8,1,1,1,1,416,5,1,MIX,3,5,1,4,314,315,316,317
1053,7,5,21,1,1,2,2,1,2,1,0,418,1,1,MIX,1,318,NA,NA,NA,NA,NA,NA
1054,7,5,22,2,1,8,0,0,2,1,1,495,323,0,MIX,2,7,5,3,319,320,321,322
1055,7,5,23,2,1,2,0,0,1,1,0,477,325,0,MIX,6,324,NA,NA,NA,NA,NA,NA
1056,7,5,24,1,1,2,1,2,2,1,0,590,2,1,MIX,2,326,NA,NA,NA,NA,NA,NA
1057,7,6,1,1,1,2,2,1,2,1,0,446,327,0,MIX,1,327,NA,NA,NA,NA,NA,NA
1058,7,6,2,2,1,8,0,0,2,1,1,606,4,1,MIX,2,5,8,1,328,329,330,331
1059,7,6,3,1,1,8,4,5,1,1,1,565,333,0,MIX,5,6,7,8,332,333,334,335
1060,7,6,4,1,1,8,8,1,1,1,1,415,339,0,MIX,6,5,4,3,336,337,338,339
1061,7,6,5,1,1,4,3,2,2,1,0,678,340,0,MIX,3,5,340,341,NA,NA,NA,NA
1062,7,6,6,2,1,2,0,0,1,1,0,447,15,1,MIX,7,342,NA,NA,NA,NA,NA,NA
1063,7,6,7,2,1,8,0,0,2,1,1,701,347,0,MIX,6,2,3,5,343,344,345,346
1064,7,6,8,2,1,4,0,0,1,1,0,585,12,1,MIX,1,5,348,349,NA,NA,NA,NA
1065,7,6,9,2,1,8,0,0,2,1,1,609,5,1,MIX,1,5,6,3,350,351,352,353
1066,7,6,10,1,1,2,2,1,2,1,0,444,354,0,MIX,1,354,NA,NA,NA,NA,NA,NA
1067,7,6,11,2,1,2,0,0,1,1,0,413,14,1,MIX,1,355,NA,NA,NA,NA,NA,NA
1068,7,6,12,2,1,2,0,0,2,1,1,480,7,1,MIX,1,356,NA,NA,NA,NA,NA,NA
1069,7,6,13,1,1,2,1,2,1,1,1,432,5,1,MIX,5,357,NA,NA,NA,NA,NA,NA
1070,7,6,14,2,1,2,0,0,2,1,1,386,359,0,MIX,2,358,NA,NA,NA,NA,NA,NA
1071,7,6,15,1,1,2,1,2,1,0,0,565,8,1,MIX,8,360,NA,NA,NA,NA,NA,NA
1072,7,6,16,1,1,8,6,3,1,1,1,560,1,1,MIX,1,4,7,6,361,362,363,364
1073,7,6,17,1,1,4,4,1,2,1,0,353,365,0,MIX,1,2,365,366,NA,NA,NA,NA
1074,7,6,18,2,1,8,0,0,2,1,1,531,371,0,MIX,5,8,3,2,367,368,369,370
1075,7,6,19,2,1,2,0,0,2,1,1,529,373,0,MIX,6,372,NA,NA,NA,NA,NA,NA
1076,7,6,20,2,1,4,0,0,2,1,1,581,8,1,MIX,4,5,374,375,NA,NA,NA,NA
1077,7,6,21,2,1,8,0,0,2,1,1,590,380,0,MIX,3,6,1,7,376,377,378,379
1078,7,6,22,2,1,2,0,0,2,1,1,538,2,1,MIX,8,381,NA,NA,NA,NA,NA,NA
1079,7,6,23,1,1,8,4,5,1,0,0,726,8,1,MIX,2,5,7,8,382,383,384,385
1080,7,6,24,1,1,2,1,2,1,1,1,524,3,1,MIX,3,386,NA,NA,NA,NA,NA,NA
1081,7,7,1,2,1,4,0,0,1,1,0,502,389,0,MIX,8,3,387,388,NA,NA,NA,NA
1082,7,7,2,1,1,2,1,2,2,0,1,597,5,1,MIX,5,390,NA,NA,NA,NA,NA,NA
1083,7,7,3,1,1,2,1,2,1,1,1,528,2,1,MIX,2,391,NA,NA,NA,NA,NA,NA
1084,7,7,4,2,1,4,0,0,1,1,0,531,394,0,MIX,5,3,392,393,NA,NA,NA,NA
1085,7,7,5,1,1,2,2,1,1,1,1,385,8,1,MIX,8,395,NA,NA,NA,NA,NA,NA
1086,7,7,6,1,1,8,1,8,1,1,1,562,399,0,MIX,2,7,5,6,396,397,398,399
1087,7,7,7,1,1,4,4,1,1,1,1,388,400,0,MIX,3,4,400,401,NA,NA,NA,NA
1088,7,7,8,1,1,8,5,4,1,1,1,518,1,1,MIX,7,2,3,1,402,403,404,405
1089,7,7,9,2,1,4,0,0,1,1,0,665,408,0,MIX,2,1,406,407,NA,NA,NA,NA
1090,7,7,10,1,1,4,3,2,1,1,1,646,7,1,MIX,7,1,409,410,NA,NA,NA,NA
1091,7,7,11,1,1,8,8,1,1,1,1,477,7,1,MIX,5,3,6,7,411,412,413,414
1092,7,7,12,2,1,4,0,0,2,1,1,545,417,0,MIX,7,4,415,416,NA,NA,NA,NA
1093,7,7,13,1,1,4,1,4,1,0,0,612,418,0,MIX,2,7,418,419,NA,NA,NA,NA
1094,7,7,14,1,1,4,4,1,1,1,1,340,2,1,MIX,3,2,420,421,NA,NA,NA,NA
1095,7,7,15,1,1,8,2,7,1,1,1,536,2,1,MIX,3,8,2,7,422,423,424,425
1096,7,7,16,1,1,2,1,2,2,1,0,582,426,0,MIX,2,426,NA,NA,NA,NA,NA,NA
1097,7,7,17,1,1,2,1,2,2,1,0,370,427,0,MIX,1,427,NA,NA,NA,NA,NA,NA
1098,7,7,18,2,1,2,0,0,1,1,0,679,12,1,MIX,5,428,NA,NA,NA,NA,NA,NA
1099,7,7,19,2,1,8,0,0,1,1,0,830,10,1,MIX,8,4,7,2,429,430,431,432
1100,7,7,20,2,1,2,0,0,2,1,1,432,434,0,MIX,3,433,NA,NA,NA,NA,NA,NA
1101,7,7,21,2,1,2,0,0,2,1,1,498,4,1,MIX,4,435,NA,NA,NA,NA,NA,NA
1102,7,7,22,1,1,4,2,3,2,1,0,598,437,0,MIX,2,8,436,437,NA,NA,NA,NA
1103,7,7,23,1,1,2,1,2,1,1,1,497,438,0,MIX,5,438,NA,NA,NA,NA,NA,NA
1104,7,7,24,2,1,4,0,0,2,1,1,515,441,0,MIX,2,8,439,440,NA,NA,NA,NA
1105,7,8,1,2,1,8,0,0,1,1,0,632,446,0,MIX,7,3,4,2,442,443,444,445
1106,7,8,2,2,1,8,0,0,2,1,1,429,451,0,MIX,1,6,3,4,447,448,449,450
1107,7,8,3,1,1,8,8,1,2,1,0,429,6,1,MIX,6,2,4,5,452,453,454,455
1108,7,8,4,2,1,2,0,0,1,1,0,464,457,0,MIX,2,456,NA,NA,NA,NA,NA,NA
1109,7,8,5,1,1,8,8,1,2,1,0,398,459,0,MIX,8,6,7,2,458,459,460,461
1110,7,8,6,1,1,2,1,2,2,1,0,433,462,0,MIX,7,462,NA,NA,NA,NA,NA,NA
1111,7,8,7,2,1,8,0,0,1,1,0,561,467,0,MIX,3,4,2,8,463,464,465,466
1112,7,8,8,1,1,8,8,1,1,1,1,347,471,0,MIX,8,4,6,3,468,469,470,471
1113,7,8,9,2,1,2,0,0,2,1,1,592,3,1,MIX,2,472,NA,NA,NA,NA,NA,NA
1114,7,8,10,2,1,4,0,0,1,1,0,800,10,1,MIX,1,2,473,474,NA,NA,NA,NA
1115,7,8,11,2,1,4,0,0,2,1,1,504,8,1,MIX,4,1,475,476,NA,NA,NA,NA
1116,7,8,12,2,1,8,0,0,2,1,1,933,481,0,MIX,6,8,4,2,477,478,479,480
1117,7,8,13,2,1,4,0,0,1,1,0,391,484,0,MIX,7,8,482,483,NA,NA,NA,NA
1118,7,8,14,1,1,4,3,2,1,0,0,400,2,1,MIX,2,3,485,486,NA,NA,NA,NA
1119,7,8,15,2,1,4,0,0,1,1,0,501,489,0,MIX,4,3,487,488,NA,NA,NA,NA
1120,7,8,16,2,1,8,0,0,2,1,1,482,1,1,MIX,2,4,8,7,490,491,492,493
1121,7,8,17,2,1,2,0,0,2,1,1,514,2,1,MIX,7,494,NA,NA,NA,NA,NA,NA
1122,7,8,18,2,1,8,0,0,2,1,1,622,7,1,MIX,6,7,2,3,495,496,497,498
1123,7,8,19,1,1,4,1,4,2,0,1,477,4,1,MIX,4,1,499,500,NA,NA,NA,NA
1124,7,8,20,1,1,2,2,1,1,1,1,526,2,1,MIX,2,501,NA,NA,NA,NA,NA,NA
1125,7,8,21,1,1,4,1,4,1,1,1,657,503,0,MIX,2,8,502,503,NA,NA,NA,NA
1126,7,8,22,1,1,2,2,1,1,1,1,410,504,0,MIX,8,504,NA,NA,NA,NA,NA,NA
1127,7,8,23,1,1,4,4,1,1,1,1,385,506,0,MIX,8,6,505,506,NA,NA,NA,NA
1128,7,8,24,1,1,2,1,2,1,1,1,437,1,1,MIX,1,507,NA,NA,NA,NA,NA,NA
1129,7,9,1,1,1,4,3,2,2,1,0,642,5,1,MIX,8,5,508,509,NA,NA,NA,NA
1130,7,9,2,2,1,8,0,0,2,1,1,650,3,1,MIX,5,8,2,1,510,511,512,513
1131,7,9,3,1,1,2,1,2,1,1,1,435,1,1,MIX,1,514,NA,NA,NA,NA,NA,NA
1132,7,9,4,1,1,8,5,4,1,1,1,403,518,0,MIX,3,2,7,5,515,516,517,518
1133,7,9,5,1,1,4,2,3,2,1,0,443,519,0,MIX,1,6,519,520,NA,NA,NA,NA
1134,7,9,6,1,1,8,5,4,2,1,0,443,521,0,MIX,6,4,5,7,521,522,523,524
1135,7,9,7,1,1,2,1,2,1,1,1,444,2,1,MIX,2,525,NA,NA,NA,NA,NA,NA
1136,7,9,8,1,1,4,4,1,2,1,0,497,6,1,MIX,6,8,526,527,NA,NA,NA,NA
1137,7,9,9,1,1,2,1,2,1,1,1,400,528,0,MIX,5,528,NA,NA,NA,NA,NA,NA
1138,7,9,10,2,1,8,0,0,1,0,1,626,4,1,MIX,1,4,8,2,529,530,531,532
1139,7,9,11,1,1,2,1,2,1,1,1,428,533,0,MIX,1,533,NA,NA,NA,NA,NA,NA
1140,7,9,12,2,1,8,0,0,1,1,0,668,12,1,MIX,7,4,6,3,534,535,536,537
1141,7,9,13,2,1,4,0,0,2,1,1,538,1,1,MIX,2,7,538,539,NA,NA,NA,NA
1142,7,9,14,2,1,2,0,0,2,1,1,504,4,1,MIX,6,540,NA,NA,NA,NA,NA,NA
1143,7,9,15,2,1,2,0,0,2,1,1,599,3,1,MIX,7,541,NA,NA,NA,NA,NA,NA
1144,7,9,16,2,1,2,0,0,1,1,0,546,12,1,MIX,7,542,NA,NA,NA,NA,NA,NA
1145,7,9,17,2,1,8,0,0,2,0,0,959,12,1,MIX,1,3,7,6,543,544,545,546
1146,7,9,18,1,1,4,4,1,2,1,0,401,548,0,MIX,1,3,547,548,NA,NA,NA,NA
1147,7,9,19,2,1,2,0,0,1,1,0,467,550,0,MIX,1,549,NA,NA,NA,NA,NA,NA
1148,7,9,20,2,1,4,0,0,1,1,0,551,13,1,MIX,4,3,551,552,NA,NA,NA,NA
1149,7,9,21,1,1,4,2,3,1,1,1,533,554,0,MIX,1,8,553,554,NA,NA,NA,NA
1150,7,9,22,1,1,8,2,7,1,1,1,721,5,1,MIX,1,5,4,3,555,556,557,558
1151,7,9,23,2,1,8,0,0,1,0,1,613,5,1,MIX,8,7,6,5,559,560,561,562
1152,7,9,24,1,1,4,2,3,2,0,1,451,564,0,MIX,7,1,563,564,NA,NA,NA,NA
1153,8,2,1,2,1,8,0,0,2,1,1,1026,82,0,MIX,5,1,7,4,78,79,80,81
1154,8,2,2,2,1,8,0,0,2,1,1,1100,8,1,MIX,8,3,5,1,83,84,85,86
1155,8,2,3,2,1,2,0,0,2,1,1,947,88,0,MIX,6,87,NA,NA,NA,NA,NA,NA
1156,8,2,4,2,1,4,0,0,1,1,0,806,91,0,MIX,4,1,89,90,NA,NA,NA,NA
1157,8,2,5,2,1,8,0,0,1,1,0,1512,96,0,MIX,7,6,4,5,92,93,94,95
1158,8,2,6,1,1,4,2,3,2,1,0,788,97,0,MIX,7,2,97,98,NA,NA,NA,NA
1159,8,2,7,1,1,2,1,2,1,1,1,776,5,1,MIX,5,99,NA,NA,NA,NA,NA,NA
1160,8,2,8,1,1,8,3,6,2,1,0,1115,7,1,MIX,3,1,5,7,100,101,102,103
1161,8,2,9,1,1,2,2,1,2,1,0,690,4,1,MIX,4,104,NA,NA,NA,NA,NA,NA
1162,8,2,10,1,1,4,1,4,2,1,0,717,4,1,MIX,1,4,105,106,NA,NA,NA,NA
1163,8,2,11,2,1,2,0,0,2,1,1,1092,1,1,MIX,2,107,NA,NA,NA,NA,NA,NA
1164,8,2,12,1,1,4,4,1,2,1,0,818,109,0,MIX,6,4,108,109,NA,NA,NA,NA
1165,8,2,13,2,1,8,0,0,1,1,0,723,14,1,MIX,2,3,7,5,110,111,112,113
1166,8,2,14,2,1,2,0,0,1,1,0,585,115,0,MIX,8,114,NA,NA,NA,NA,NA,NA
1167,8,2,15,2,1,8,0,0,1,1,0,1044,10,1,MIX,6,1,5,4,116,117,118,119
1168,8,2,16,2,1,4,0,0,2,1,1,658,6,1,MIX,1,7,120,121,NA,NA,NA,NA
1169,8,2,17,2,1,4,0,0,1,1,0,752,124,0,MIX,4,5,122,123,NA,NA,NA,NA
1170,8,2,18,1,1,4,4,1,2,1,0,843,5,1,MIX,5,7,125,126,NA,NA,NA,NA
1171,8,2,19,1,1,4,1,4,2,1,0,817,6,1,MIX,5,6,127,128,NA,NA,NA,NA
1172,8,2,20,1,1,2,2,1,2,1,0,1124,5,1,MIX,5,129,NA,NA,NA,NA,NA,NA
1173,8,2,21,2,1,8,0,0,1,1,0,714,10,1,MIX,8,5,2,7,130,131,132,133
1174,8,2,22,2,1,8,0,0,2,1,1,846,138,0,MIX,8,3,4,1,134,135,136,137
1175,8,2,23,1,1,4,1,4,2,1,0,884,140,0,MIX,3,4,139,140,NA,NA,NA,NA
1176,8,2,24,2,1,8,0,0,1,0,1,930,3,1,MIX,7,1,6,5,141,142,143,144
1177,8,3,1,2,1,8,0,0,1,1,0,781,10,1,MIX,7,8,1,5,145,146,147,148
1178,8,3,2,1,1,4,4,1,2,1,0,566,4,1,MIX,3,4,149,150,NA,NA,NA,NA
1179,8,3,3,2,1,2,0,0,1,1,0,931,11,1,MIX,2,151,NA,NA,NA,NA,NA,NA
1180,8,3,4,2,1,8,0,0,1,1,0,703,16,1,MIX,5,3,4,1,152,153,154,155
1181,8,3,5,2,1,8,0,0,1,1,0,1268,160,0,MIX,7,2,1,3,156,157,158,159
1182,8,3,6,1,1,8,8,1,2,1,0,626,4,1,MIX,3,8,2,4,161,162,163,164
1183,8,3,7,1,1,4,2,3,1,1,1,818,3,1,MIX,3,2,165,166,NA,NA,NA,NA
1184,8,3,8,1,1,8,8,1,2,1,0,643,168,0,MIX,8,5,4,3,167,168,169,170
1185,8,3,9,2,1,8,0,0,1,1,0,955,175,0,MIX,5,4,8,3,171,172,173,174
1186,8,3,10,1,1,8,4,5,1,1,1,1222,176,0,MIX,7,8,6,3,176,177,178,179
1187,8,3,11,1,1,2,2,1,2,1,0,458,180,0,MIX,1,180,NA,NA,NA,NA,NA,NA
1188,8,3,12,2,1,4,0,0,2,1,1,1248,8,1,MIX,3,7,181,182,NA,NA,NA,NA
1189,8,3,13,2,1,4,0,0,1,1,0,627,185,0,MIX,5,3,183,184,NA,NA,NA,NA
1190,8,3,14,1,1,8,2,7,1,1,1,812,6,1,MIX,6,7,8,4,186,187,188,189
1191,8,3,15,1,1,8,2,7,2,0,1,1613,6,1,MIX,4,1,2,6,190,191,192,193
1192,8,3,16,2,1,4,0,0,1,1,0,869,9,1,MIX,2,7,194,195,NA,NA,NA,NA
1193,8,3,17,1,1,8,5,4,2,1,0,882,196,0,MIX,4,5,1,8,196,197,198,199
1194,8,3,18,1,1,2,1,2,2,1,0,947,200,0,MIX,6,200,NA,NA,NA,NA,NA,NA
1195,8,3,19,1,1,8,1,8,1,1,1,1231,4,1,MIX,7,6,4,5,201,202,203,204
1196,8,3,20,2,1,2,0,0,1,1,0,705,9,1,MIX,8,205,NA,NA,NA,NA,NA,NA
1197,8,3,21,1,1,2,2,1,1,1,1,681,206,0,MIX,7,206,NA,NA,NA,NA,NA,NA
1198,8,3,22,2,1,8,0,0,2,1,1,717,211,0,MIX,7,5,3,8,207,208,209,210
1199,8,3,23,2,1,2,0,0,1,1,0,629,213,0,MIX,4,212,NA,NA,NA,NA,NA,NA
1200,8,3,24,1,1,8,1,8,2,1,0,958,2,1,MIX,5,2,1,4,214,215,216,217
1201,8,4,1,1,1,2,1,2,2,1,0,456,218,0,MIX,6,218,NA,NA,NA,NA,NA,NA
1202,8,4,2,1,1,4,3,2,1,1,1,846,219,0,MIX,3,6,219,220,NA,NA,NA,NA
1203,8,4,3,2,1,8,0,0,1,1,0,622,225,0,MIX,1,6,3,5,221,222,223,224
1204,8,4,4,1,1,8,6,3,1,1,1,1366,1,1,MIX,1,8,3,2,226,227,228,229
1205,8,4,5,1,1,2,1,2,1,1,1,530,2,1,MIX,2,230,NA,NA,NA,NA,NA,NA
1206,8,4,6,1,1,4,1,4,2,1,0,757,232,0,MIX,8,6,231,232,NA,NA,NA,NA
1207,8,4,7,2,1,2,0,0,1,1,0,681,234,0,MIX,4,233,NA,NA,NA,NA,NA,NA
1208,8,4,8,2,1,8,0,0,1,1,0,720,239,0,MIX,3,5,7,1,235,236,237,238
1209,8,4,9,2,1,8,0,0,2,0,0,644,244,0,MIX,1,7,3,4,240,241,242,243
1210,8,4,10,2,1,2,0,0,1,1,0,653,246,0,MIX,2,245,NA,NA,NA,NA,NA,NA
1211,8,4,11,1,1,4,2,3,2,1,0,940,248,0,MIX,2,3,247,248,NA,NA,NA,NA
1212,8,4,12,2,1,2,0,0,1,1,0,667,16,1,MIX,7,249,NA,NA,NA,NA,NA,NA
1213,8,4,13,2,1,8,0,0,2,1,1,972,254,0,MIX,1,3,6,4,250,251,252,253
1214,8,4,14,1,1,4,1,4,2,1,0,670,255,0,MIX,1,6,255,256,NA,NA,NA,NA
1215,8,4,15,1,1,8,8,1,1,1,1,646,7,1,MIX,3,5,4,7,257,258,259,260
1216,8,4,16,1,1,2,1,2,1,1,1,736,261,0,MIX,3,261,NA,NA,NA,NA,NA,NA
1217,8,4,17,1,1,2,2,1,1,1,1,726,262,0,MIX,3,262,NA,NA,NA,NA,NA,NA
1218,8,4,18,1,1,2,2,1,1,1,1,572,2,1,MIX,2,263,NA,NA,NA,NA,NA,NA
1219,8,4,19,1,1,4,1,4,2,1,0,558,264,0,MIX,6,4,264,265,NA,NA,NA,NA
1220,8,4,20,2,1,4,0,0,2,1,1,753,268,0,MIX,5,8,266,267,NA,NA,NA,NA
1221,8,4,21,1,1,2,2,1,1,1,1,551,269,0,MIX,3,269,NA,NA,NA,NA,NA,NA
1222,8,4,22,2,1,4,0,0,2,1,1,666,272,0,MIX,7,6,270,271,NA,NA,NA,NA
1223,8,4,23,1,1,8,3,6,2,0,1,1614,274,0,MIX,8,6,2,1,273,274,275,276
1224,8,4,24,2,1,2,0,0,1,1,0,912,16,1,MIX,4,277,NA,NA,NA,NA,NA,NA
1225,8,5,1,2,1,4,0,0,2,1,1,655,280,0,MIX,3,5,278,279,NA,NA,NA,NA
1226,8,5,2,2,1,2,0,0,1,1,0,617,282,0,MIX,6,281,NA,NA,NA,NA,NA,NA
1227,8,5,3,2,1,8,0,0,1,1,0,1089,287,0,MIX,1,2,7,3,283,284,285,286
1228,8,5,4,1,1,8,5,4,2,1,0,999,8,1,MIX,1,4,8,5,288,289,290,291
1229,8,5,5,1,1,8,4,5,1,1,1,801,3,1,MIX,3,2,7,1,292,293,294,295
1230,8,5,6,2,1,2,0,0,2,1,1,772,297,0,MIX,3,296,NA,NA,NA,NA,NA,NA
1231,8,5,7,2,1,2,0,0,2,1,1,440,299,0,MIX,8,298,NA,NA,NA,NA,NA,NA
1232,8,5,8,2,1,8,0,0,2,1,1,807,304,0,MIX,3,1,7,4,300,301,302,303
1233,8,5,9,1,1,2,2,1,2,1,0,1114,305,0,MIX,7,305,NA,NA,NA,NA,NA,NA
1234,8,5,10,2,1,2,0,0,2,1,1,1345,5,1,MIX,1,306,NA,NA,NA,NA,NA,NA
1235,8,5,11,2,1,2,0,0,1,1,0,2431,308,0,MIX,8,307,NA,NA,NA,NA,NA,NA
1236,8,5,12,1,1,8,1,8,2,1,0,1023,2,1,MIX,2,8,4,7,309,310,311,312
1237,8,5,13,2,1,2,0,0,1,1,0,521,314,0,MIX,4,313,NA,NA,NA,NA,NA,NA
1238,8,5,14,1,1,8,8,1,1,1,1,886,1,1,MIX,3,8,5,1,315,316,317,318
1239,8,5,15,1,1,4,3,2,2,1,0,1050,3,1,MIX,3,5,319,320,NA,NA,NA,NA
1240,8,5,16,1,1,8,7,2,1,1,1,498,321,0,MIX,8,7,1,5,321,322,323,324
1241,8,5,17,1,1,8,7,2,1,1,1,704,3,1,MIX,5,6,8,3,325,326,327,328
1242,8,5,18,1,1,2,2,1,1,1,1,807,329,0,MIX,7,329,NA,NA,NA,NA,NA,NA
1243,8,5,19,1,1,8,5,4,1,1,1,438,2,1,MIX,8,4,7,2,330,331,332,333
1244,8,5,20,1,1,2,1,2,2,1,0,824,4,1,MIX,4,334,NA,NA,NA,NA,NA,NA
1245,8,5,21,1,1,4,2,3,1,0,0,1183,3,1,MIX,1,3,335,336,NA,NA,NA,NA
1246,8,5,22,2,1,2,0,0,2,1,1,610,338,0,MIX,2,337,NA,NA,NA,NA,NA,NA
1247,8,5,23,2,1,8,0,0,2,1,1,1003,8,1,MIX,6,5,1,3,339,340,341,342
1248,8,5,24,2,1,8,0,0,2,1,1,1189,1,1,MIX,1,4,6,7,343,344,345,346
1249,8,6,1,2,1,4,0,0,1,1,0,606,10,1,MIX,6,4,347,348,NA,NA,NA,NA
1250,8,6,2,1,1,4,2,3,1,1,1,671,5,1,MIX,1,5,349,350,NA,NA,NA,NA
1251,8,6,3,2,1,8,0,0,1,0,1,773,4,1,MIX,1,3,6,5,351,352,353,354
1252,8,6,4,2,1,4,0,0,2,1,1,750,357,0,MIX,7,6,355,356,NA,NA,NA,NA
1253,8,6,5,1,1,8,6,3,2,1,0,2003,359,0,MIX,8,7,6,5,358,359,360,361
1254,8,6,6,2,1,4,0,0,1,1,0,650,364,0,MIX,8,4,362,363,NA,NA,NA,NA
1255,8,6,7,2,1,4,0,0,1,1,0,760,11,1,MIX,1,5,365,366,NA,NA,NA,NA
1256,8,6,8,1,1,2,2,1,1,1,1,604,8,1,MIX,8,367,NA,NA,NA,NA,NA,NA
1257,8,6,9,2,1,2,0,0,2,1,1,1096,369,0,MIX,2,368,NA,NA,NA,NA,NA,NA
1258,8,6,10,1,1,8,8,1,1,1,1,1325,5,1,MIX,2,4,5,7,370,371,372,373
1259,8,6,11,2,1,8,0,0,1,1,0,2603,13,1,MIX,2,4,8,3,374,375,376,377
1260,8,6,12,2,1,8,0,0,1,1,0,501,382,0,MIX,8,5,4,6,378,379,380,381
1261,8,6,13,1,1,2,1,2,1,1,1,469,383,0,MIX,7,383,NA,NA,NA,NA,NA,NA
1262,8,6,14,2,1,4,0,0,2,1,1,585,386,0,MIX,5,1,384,385,NA,NA,NA,NA
1263,8,6,15,2,1,2,0,0,2,1,1,630,6,1,MIX,8,387,NA,NA,NA,NA,NA,NA
1264,8,6,16,2,1,8,0,0,1,1,0,1023,13,1,MIX,7,1,5,3,388,389,390,391
1265,8,6,17,2,1,2,0,0,1,1,0,618,11,1,MIX,2,392,NA,NA,NA,NA,NA,NA
1266,8,6,18,2,1,2,0,0,1,1,0,613,394,0,MIX,7,393,NA,NA,NA,NA,NA,NA
1267,8,6,19,1,1,4,4,1,2,1,0,1125,395,0,MIX,2,4,395,396,NA,NA,NA,NA
1268,8,6,20,1,1,4,4,1,2,1,0,849,397,0,MIX,3,1,397,398,NA,NA,NA,NA
1269,8,6,21,2,1,2,0,0,1,0,1,2386,400,0,MIX,7,399,NA,NA,NA,NA,NA,NA
1270,8,6,22,2,1,2,0,0,2,1,1,775,7,1,MIX,4,401,NA,NA,NA,NA,NA,NA
1271,8,6,23,1,1,2,2,1,2,1,0,1148,402,0,MIX,4,402,NA,NA,NA,NA,NA,NA
1272,8,6,24,2,1,4,0,0,2,1,1,612,405,0,MIX,2,6,403,404,NA,NA,NA,NA
1273,8,7,1,2,1,4,0,0,2,1,1,610,408,0,MIX,8,6,406,407,NA,NA,NA,NA
1274,8,7,2,1,1,2,1,2,1,1,1,542,409,0,MIX,7,409,NA,NA,NA,NA,NA,NA
1275,8,7,3,2,1,4,0,0,2,0,0,673,15,1,MIX,8,6,410,411,NA,NA,NA,NA
1276,8,7,4,1,1,8,4,5,1,1,1,742,4,1,MIX,4,7,1,5,412,413,414,415
1277,8,7,5,2,1,2,0,0,2,1,1,506,417,0,MIX,3,416,NA,NA,NA,NA,NA,NA
1278,8,7,6,2,1,2,0,0,2,1,1,505,419,0,MIX,4,418,NA,NA,NA,NA,NA,NA
1279,8,7,7,2,1,4,0,0,1,1,0,589,422,0,MIX,2,8,420,421,NA,NA,NA,NA
1280,8,7,8,1,1,8,7,2,2,1,0,679,5,1,MIX,2,8,5,6,423,424,425,426
1281,8,7,9,2,1,4,0,0,1,1,0,1060,13,1,MIX,6,2,427,428,NA,NA,NA,NA
1282,8,7,10,1,1,4,2,3,1,1,1,882,1,1,MIX,1,2,429,430,NA,NA,NA,NA
1283,8,7,11,1,1,4,3,2,1,0,0,965,2,1,MIX,7,2,431,432,NA,NA,NA,NA
1284,8,7,12,2,1,8,0,0,2,1,1,879,437,0,MIX,2,6,4,8,433,434,435,436
1285,8,7,13,2,1,8,0,0,2,1,1,879,7,1,MIX,4,2,6,8,438,439,440,441
1286,8,7,14,1,1,8,3,6,2,1,0,1679,4,1,MIX,1,2,4,7,442,443,444,445
1287,8,7,15,2,1,8,0,0,2,1,1,684,450,0,MIX,3,6,8,7,446,447,448,449
1288,8,7,16,2,1,8,0,0,1,1,0,931,15,1,MIX,4,7,2,5,451,452,453,454
1289,8,7,17,2,1,8,0,0,1,1,0,511,459,0,MIX,7,1,6,4,455,456,457,458
1290,8,7,18,2,1,2,0,0,1,1,0,462,461,0,MIX,8,460,NA,NA,NA,NA,NA,NA
1291,8,7,19,2,1,2,0,0,1,1,0,512,9,1,MIX,4,462,NA,NA,NA,NA,NA,NA
1292,8,7,20,1,1,4,4,1,2,1,0,484,463,0,MIX,4,1,463,464,NA,NA,NA,NA
1293,8,7,21,1,1,2,1,2,2,1,0,884,6,1,MIX,6,465,NA,NA,NA,NA,NA,NA
1294,8,7,22,2,1,2,0,0,2,1,1,484,467,0,MIX,5,466,NA,NA,NA,NA,NA,NA
1295,8,7,23,1,1,2,2,1,2,1,0,739,468,0,MIX,7,468,NA,NA,NA,NA,NA,NA
1296,8,7,24,2,1,4,0,0,2,1,1,1311,5,1,MIX,1,7,469,470,NA,NA,NA,NA
1297,8,8,1,2,1,4,0,0,1,1,0,439,473,0,MIX,6,1,471,472,NA,NA,NA,NA
1298,8,8,2,1,1,8,4,5,2,1,0,743,1,1,MIX,7,8,1,2,474,475,476,477
1299,8,8,3,1,1,2,2,1,2,1,0,461,6,1,MIX,6,478,NA,NA,NA,NA,NA,NA
1300,8,8,4,2,1,4,0,0,2,1,1,1283,2,1,MIX,5,1,479,480,NA,NA,NA,NA
1301,8,8,5,1,1,8,3,6,1,0,0,817,5,1,MIX,5,7,4,6,481,482,483,484
1302,8,8,6,2,1,8,0,0,1,1,0,688,15,1,MIX,5,6,2,8,485,486,487,488
1303,8,8,7,2,1,8,0,0,2,1,1,631,493,0,MIX,3,2,6,5,489,490,491,492
1304,8,8,8,1,1,4,1,4,1,1,1,806,494,0,MIX,5,3,494,495,NA,NA,NA,NA
1305,8,8,9,2,1,2,0,0,1,1,0,682,14,1,MIX,3,496,NA,NA,NA,NA,NA,NA
1306,8,8,10,1,1,4,2,3,2,0,1,807,8,1,MIX,8,6,497,498,NA,NA,NA,NA
1307,8,8,11,2,1,2,0,0,2,1,1,826,500,0,MIX,1,499,NA,NA,NA,NA,NA,NA
1308,8,8,12,1,1,4,1,4,1,1,1,865,2,1,MIX,2,3,501,502,NA,NA,NA,NA
1309,8,8,13,2,1,4,0,0,1,1,0,759,16,1,MIX,5,1,503,504,NA,NA,NA,NA
1310,8,8,14,1,1,2,2,1,2,1,0,748,505,0,MIX,6,505,NA,NA,NA,NA,NA,NA
1311,8,8,15,2,1,4,0,0,2,1,1,725,6,1,MIX,1,3,506,507,NA,NA,NA,NA
1312,8,8,16,1,1,8,4,5,1,1,1,651,509,0,MIX,8,3,5,6,508,509,510,511
1313,8,8,17,1,1,4,3,2,1,1,1,682,8,1,MIX,4,8,512,513,NA,NA,NA,NA
1314,8,8,18,1,1,2,1,2,2,1,0,514,514,0,MIX,4,514,NA,NA,NA,NA,NA,NA
1315,8,8,19,2,1,8,0,0,2,0,0,1343,519,0,MIX,3,7,5,4,515,516,517,518
1316,8,8,20,2,1,2,0,0,2,1,1,877,7,1,MIX,8,520,NA,NA,NA,NA,NA,NA
1317,8,8,21,1,1,2,2,1,1,1,1,413,521,0,MIX,4,521,NA,NA,NA,NA,NA,NA
1318,8,8,22,1,1,2,1,2,1,1,1,625,4,1,MIX,4,522,NA,NA,NA,NA,NA,NA
1319,8,8,23,1,1,2,2,1,2,1,0,347,523,0,MIX,3,523,NA,NA,NA,NA,NA,NA
1320,8,8,24,2,1,2,0,0,1,1,0,769,16,1,MIX,4,524,NA,NA,NA,NA,NA,NA
1321,8,9,1,2,1,8,0,0,1,0,1,848,4,1,MIX,1,4,5,3,525,526,527,528
1322,8,9,2,2,1,2,0,0,1,0,1,849,3,1,MIX,1,529,NA,NA,NA,NA,NA,NA
1323,8,9,3,2,1,8,0,0,2,1,1,1393,6,1,MIX,6,5,8,4,530,531,532,533
1324,8,9,4,2,1,4,0,0,1,1,0,578,16,1,MIX,4,1,534,535,NA,NA,NA,NA
1325,8,9,5,2,1,8,0,0,1,1,0,3166,540,0,MIX,5,1,6,8,536,537,538,539
1326,8,9,6,2,1,2,0,0,1,1,0,1298,13,1,MIX,5,541,NA,NA,NA,NA,NA,NA
1327,8,9,7,1,1,8,2,7,1,0,0,721,2,1,MIX,7,4,2,1,542,543,544,545
1328,8,9,8,2,1,2,0,0,2,1,1,696,547,0,MIX,4,546,NA,NA,NA,NA,NA,NA
1329,8,9,9,2,1,2,0,0,2,1,1,1232,3,1,MIX,3,548,NA,NA,NA,NA,NA,NA
1330,8,9,10,1,1,2,2,1,2,1,0,1090,549,0,MIX,8,549,NA,NA,NA,NA,NA,NA
1331,8,9,11,1,1,8,7,2,2,0,1,2631,5,1,MIX,5,3,1,8,550,551,552,553
1332,8,9,12,2,1,4,0,0,2,1,1,678,556,0,MIX,2,3,554,555,NA,NA,NA,NA
1333,8,9,13,1,1,4,2,3,2,1,0,771,2,1,MIX,1,2,557,558,NA,NA,NA,NA
1334,8,9,14,2,1,2,0,0,2,1,1,952,5,1,MIX,4,559,NA,NA,NA,NA,NA,NA
1335,8,9,15,1,1,2,2,1,1,1,1,629,560,0,MIX,6,560,NA,NA,NA,NA,NA,NA
1336,8,9,16,1,1,2,1,2,1,1,1,689,561,0,MIX,1,561,NA,NA,NA,NA,NA,NA
1337,8,9,17,1,1,4,3,2,1,1,1,1342,562,0,MIX,3,5,562,563,NA,NA,NA,NA
1338,8,9,18,1,1,8,1,8,1,1,1,1432,565,0,MIX,2,8,1,4,564,565,566,567
1339,8,9,19,2,1,4,0,0,1,0,1,1015,7,1,MIX,6,3,568,569,NA,NA,NA,NA
1340,8,9,20,2,1,8,0,0,2,1,1,2064,3,1,MIX,6,4,1,8,570,571,572,573
1341,8,9,21,1,1,4,2,3,1,0,0,1941,575,0,MIX,2,5,574,575,NA,NA,NA,NA
1342,8,9,22,1,1,8,7,2,1,1,1,698,4,1,MIX,8,7,2,4,576,577,578,579
1343,8,9,23,2,1,2,0,0,1,1,0,1762,16,1,MIX,5,580,NA,NA,NA,NA,NA,NA
1344,8,9,24,2,1,4,0,0,1,1,0,628,9,1,MIX,1,4,581,582,NA,NA,NA,NA
1345,9,2,1,1,1,4,4,1,1,1,1,977,81,0,MIX,7,8,80,81,NA,NA,NA,NA
1346,9,2,2,2,1,2,0,0,1,1,0,815,10,1,MIX,3,82,NA,NA,NA,NA,NA,NA
1347,9,2,3,1,1,8,6,3,1,0,0,987,84,0,MIX,5,3,4,2,83,84,85,86
1348,9,2,4,2,1,8,0,0,1,1,0,814,91,0,MIX,6,2,7,5,87,88,89,90
1349,9,2,5,1,1,2,2,1,2,1,0,1491,92,0,MIX,4,92,NA,NA,NA,NA,NA,NA
1350,9,2,6,2,1,4,0,0,2,1,1,1424,95,0,MIX,2,1,93,94,NA,NA,NA,NA
1351,9,2,7,2,1,2,0,0,2,1,1,1261,6,1,MIX,8,96,NA,NA,NA,NA,NA,NA
1352,9,2,8,1,1,8,7,2,1,1,1,1120,2,1,MIX,8,4,1,2,97,98,99,100
1353,9,2,9,2,1,2,0,0,2,1,1,1175,4,1,MIX,8,101,NA,NA,NA,NA,NA,NA
1354,9,2,10,1,1,8,7,2,2,1,0,828,3,1,MIX,6,1,3,2,102,103,104,105
1355,9,2,11,1,1,2,2,1,1,1,1,864,7,1,MIX,7,106,NA,NA,NA,NA,NA,NA
1356,9,2,12,2,1,2,0,0,1,1,0,1002,15,1,MIX,7,107,NA,NA,NA,NA,NA,NA
1357,9,2,13,1,1,8,5,4,1,0,0,958,109,0,MIX,6,7,1,3,108,109,110,111
1358,9,2,14,1,1,2,1,2,1,1,1,1045,4,1,MIX,4,112,NA,NA,NA,NA,NA,NA
1359,9,2,15,2,1,8,0,0,2,1,1,992,3,1,MIX,7,8,1,2,113,114,115,116
1360,9,2,16,2,1,2,0,0,2,0,0,1390,14,1,MIX,7,117,NA,NA,NA,NA,NA,NA
1361,9,2,17,2,1,2,0,0,1,1,0,1059,10,1,MIX,3,118,NA,NA,NA,NA,NA,NA
1362,9,2,18,1,1,2,1,2,2,1,0,990,1,1,MIX,1,119,NA,NA,NA,NA,NA,NA
1363,9,2,19,1,1,4,4,1,1,1,1,1024,3,1,MIX,1,3,120,121,NA,NA,NA,NA
1364,9,2,20,2,1,8,0,0,2,1,1,956,3,1,MIX,3,4,2,6,122,123,124,125
1365,9,2,21,2,1,8,0,0,1,0,1,1099,130,0,MIX,6,7,2,1,126,127,128,129
1366,9,2,22,1,1,4,4,1,1,1,1,704,131,0,MIX,1,6,131,132,NA,NA,NA,NA
1367,9,2,23,2,1,4,0,0,2,0,0,542,9,1,MIX,2,3,133,134,NA,NA,NA,NA
1368,9,2,24,1,1,2,2,1,1,1,1,830,135,0,MIX,4,135,NA,NA,NA,NA,NA,NA
1369,9,3,1,1,1,2,1,2,1,1,1,787,4,1,MIX,4,136,NA,NA,NA,NA,NA,NA
1370,9,3,2,2,1,4,0,0,2,1,1,574,2,1,MIX,7,3,137,138,NA,NA,NA,NA
1371,9,3,3,1,1,8,6,3,2,1,0,579,2,1,MIX,1,8,3,2,139,140,141,142
1372,9,3,4,1,1,4,2,3,1,1,1,1062,144,0,MIX,1,5,143,144,NA,NA,NA,NA
1373,9,3,5,1,1,8,7,2,2,1,0,1055,147,0,MIX,3,5,6,8,145,146,147,148
1374,9,3,6,1,1,4,2,3,1,0,0,919,6,1,MIX,3,6,149,150,NA,NA,NA,NA
1375,9,3,7,1,1,2,1,2,2,1,0,1039,7,1,MIX,7,151,NA,NA,NA,NA,NA,NA
1376,9,3,8,1,1,8,2,7,1,1,1,721,4,1,MIX,3,7,2,4,152,153,154,155
1377,9,3,9,2,1,2,0,0,2,1,1,784,3,1,MIX,2,156,NA,NA,NA,NA,NA,NA
1378,9,3,10,1,1,8,6,3,2,1,0,686,6,1,MIX,6,2,4,3,157,158,159,160
1379,9,3,11,1,1,2,2,1,1,1,1,879,161,0,MIX,3,161,NA,NA,NA,NA,NA,NA
1380,9,3,12,2,1,4,0,0,2,1,1,1108,164,0,MIX,2,5,162,163,NA,NA,NA,NA
1381,9,3,13,2,1,8,0,0,1,1,0,749,12,1,MIX,5,1,8,6,165,166,167,168
1382,9,3,14,1,1,4,4,1,2,1,0,777,5,1,MIX,5,2,169,170,NA,NA,NA,NA
1383,9,3,15,2,1,4,0,0,1,1,0,1130,16,1,MIX,4,6,171,172,NA,NA,NA,NA
1384,9,3,16,1,1,8,4,5,1,0,0,839,173,0,MIX,3,2,7,4,173,174,175,176
1385,9,3,17,2,1,8,0,0,2,1,1,984,181,0,MIX,7,5,2,4,177,178,179,180
1386,9,3,18,1,1,2,2,1,1,1,1,509,182,0,MIX,8,182,NA,NA,NA,NA,NA,NA
1387,9,3,19,2,1,4,0,0,2,0,0,754,14,1,MIX,5,1,183,184,NA,NA,NA,NA
1388,9,3,20,1,1,8,1,8,1,1,1,953,185,0,MIX,8,1,4,2,185,186,187,188
1389,9,3,21,2,1,8,0,0,2,1,1,1240,2,1,MIX,6,1,8,4,189,190,191,192
1390,9,3,22,1,1,2,1,2,1,1,1,858,5,1,MIX,5,193,NA,NA,NA,NA,NA,NA
1391,9,3,23,1,1,2,2,1,1,1,1,867,1,1,MIX,1,194,NA,NA,NA,NA,NA,NA
1392,9,3,24,2,1,2,0,0,2,1,1,709,7,1,MIX,6,195,NA,NA,NA,NA,NA,NA
1393,9,4,1,2,1,2,0,0,2,1,1,985,6,1,MIX,3,196,NA,NA,NA,NA,NA,NA
1394,9,4,2,1,1,8,6,3,2,1,0,661,199,0,MIX,7,8,6,3,197,198,199,200
1395,9,4,3,1,1,2,1,2,1,1,1,951,1,1,MIX,1,201,NA,NA,NA,NA,NA,NA
1396,9,4,4,2,1,2,0,0,2,0,0,702,203,0,MIX,8,202,NA,NA,NA,NA,NA,NA
1397,9,4,5,2,1,8,0,0,1,1,0,1926,14,1,MIX,7,6,1,2,204,205,206,207
1398,9,4,6,1,1,8,8,1,1,1,1,684,6,1,MIX,4,1,6,5,208,209,210,211
1399,9,4,7,2,1,8,0,0,2,1,1,733,216,0,MIX,3,5,1,6,212,213,214,215
1400,9,4,8,2,1,2,0,0,2,1,1,933,218,0,MIX,8,217,NA,NA,NA,NA,NA,NA
1401,9,4,9,2,1,2,0,0,1,1,0,540,220,0,MIX,7,219,NA,NA,NA,NA,NA,NA
1402,9,4,10,1,1,2,1,2,1,1,1,787,221,0,MIX,1,221,NA,NA,NA,NA,NA,NA
1403,9,4,11,1,1,8,5,4,2,1,0,1080,225,0,MIX,6,2,4,5,222,223,224,225
1404,9,4,12,1,1,8,3,6,1,0,0,599,227,0,MIX,1,5,6,2,226,227,228,229
1405,9,4,13,2,1,4,0,0,2,1,1,1009,232,0,MIX,4,1,230,231,NA,NA,NA,NA
1406,9,4,14,1,1,8,8,1,1,1,1,501,5,1,MIX,7,6,1,5,233,234,235,236
1407,9,4,15,1,1,2,1,2,1,1,1,670,237,0,MIX,5,237,NA,NA,NA,NA,NA,NA
1408,9,4,16,1,1,8,2,7,1,1,1,928,239,0,MIX,5,3,6,1,238,239,240,241
1409,9,4,17,2,1,2,0,0,2,1,1,672,243,0,MIX,5,242,NA,NA,NA,NA,NA,NA
1410,9,4,18,1,1,4,2,3,2,1,0,831,2,1,MIX,7,2,244,245,NA,NA,NA,NA
1411,9,4,19,1,1,4,4,1,2,1,0,504,247,0,MIX,2,8,246,247,NA,NA,NA,NA
1412,9,4,20,2,1,2,0,0,2,1,1,593,2,1,MIX,8,248,NA,NA,NA,NA,NA,NA
1413,9,4,21,1,1,2,1,2,2,0,1,902,3,1,MIX,3,249,NA,NA,NA,NA,NA,NA
1414,9,4,22,2,1,8,0,0,1,0,1,966,7,1,MIX,2,7,3,1,250,251,252,253
1415,9,4,23,1,1,8,7,2,2,1,0,579,8,1,MIX,8,1,6,4,254,255,256,257
1416,9,4,24,1,1,4,3,2,2,1,0,719,8,1,MIX,8,2,258,259,NA,NA,NA,NA
1417,9,5,1,1,1,8,3,6,2,1,0,620,261,0,MIX,4,6,3,8,260,261,262,263
1418,9,5,2,1,1,8,3,6,1,1,1,657,4,1,MIX,4,6,2,5,264,265,266,267
1419,9,5,3,1,1,8,7,2,1,1,1,705,269,0,MIX,7,4,5,8,268,269,270,271
1420,9,5,4,2,1,2,0,0,1,1,0,770,273,0,MIX,1,272,NA,NA,NA,NA,NA,NA
1421,9,5,5,1,1,8,5,4,1,1,1,910,6,1,MIX,4,2,3,6,274,275,276,277
1422,9,5,6,1,1,2,2,1,1,1,1,471,1,1,MIX,1,278,NA,NA,NA,NA,NA,NA
1423,9,5,7,1,1,8,1,8,2,1,0,680,4,1,MIX,1,4,3,8,279,280,281,282
1424,9,5,8,1,1,2,1,2,2,0,1,513,283,0,MIX,4,283,NA,NA,NA,NA,NA,NA
1425,9,5,9,2,1,8,0,0,2,0,0,617,16,1,MIX,4,5,8,3,284,285,286,287
1426,9,5,10,2,1,8,0,0,2,1,1,685,292,0,MIX,8,7,3,4,288,289,290,291
1427,9,5,11,1,1,8,7,2,2,1,0,543,6,1,MIX,2,1,6,7,293,294,295,296
1428,9,5,12,1,1,8,6,3,2,1,0,462,4,1,MIX,5,6,4,8,297,298,299,300
1429,9,5,13,2,1,4,0,0,2,1,1,1925,1,1,MIX,5,1,301,302,NA,NA,NA,NA
1430,9,5,14,1,1,2,1,2,2,1,0,1325,3,1,MIX,3,303,NA,NA,NA,NA,NA,NA
1431,9,5,15,1,1,4,3,2,2,0,1,1267,7,1,MIX,1,7,304,305,NA,NA,NA,NA
1432,9,5,16,2,1,8,0,0,2,1,1,1213,1,1,MIX,7,2,5,3,306,307,308,309
1433,9,5,17,1,1,2,2,1,1,1,1,554,2,1,MIX,2,310,NA,NA,NA,NA,NA,NA
1434,9,5,18,1,1,8,5,4,2,1,0,815,7,1,MIX,7,5,8,1,311,312,313,314
1435,9,5,19,2,1,4,0,0,2,1,1,752,317,0,MIX,2,5,315,316,NA,NA,NA,NA
1436,9,5,20,1,1,4,3,2,2,1,0,979,318,0,MIX,5,1,318,319,NA,NA,NA,NA
1437,9,5,21,1,1,2,1,2,1,1,1,480,5,1,MIX,5,320,NA,NA,NA,NA,NA,NA
1438,9,5,22,2,1,2,0,0,1,1,0,600,14,1,MIX,3,321,NA,NA,NA,NA,NA,NA
1439,9,5,23,2,1,2,0,0,1,1,0,1052,13,1,MIX,3,322,NA,NA,NA,NA,NA,NA
1440,9,5,24,2,1,2,0,0,1,1,0,847,324,0,MIX,3,323,NA,NA,NA,NA,NA,NA
1441,9,6,1,1,1,4,2,3,2,1,0,907,326,0,MIX,8,3,325,326,NA,NA,NA,NA
1442,9,6,2,1,1,4,1,4,2,1,0,538,327,0,MIX,4,6,327,328,NA,NA,NA,NA
1443,9,6,3,2,1,2,0,0,2,1,1,919,4,1,MIX,8,329,NA,NA,NA,NA,NA,NA
1444,9,6,4,2,1,2,0,0,2,1,1,511,1,1,MIX,2,330,NA,NA,NA,NA,NA,NA
1445,9,6,5,2,1,8,0,0,1,1,0,663,335,0,MIX,6,3,4,5,331,332,333,334
1446,9,6,6,1,1,2,2,1,1,0,0,562,4,1,MIX,4,336,NA,NA,NA,NA,NA,NA
1447,9,6,7,2,1,4,0,0,1,1,0,853,339,0,MIX,2,6,337,338,NA,NA,NA,NA
1448,9,6,8,1,1,8,2,7,1,1,1,879,8,1,MIX,5,7,8,6,340,341,342,343
1449,9,6,9,2,1,4,0,0,2,1,1,758,2,1,MIX,3,4,344,345,NA,NA,NA,NA
1450,9,6,10,2,1,2,0,0,2,1,1,661,347,0,MIX,1,346,NA,NA,NA,NA,NA,NA
1451,9,6,11,2,1,4,0,0,1,1,0,1541,350,0,MIX,4,5,348,349,NA,NA,NA,NA
1452,9,6,12,1,1,8,4,5,2,1,0,708,4,1,MIX,4,3,6,2,351,352,353,354
1453,9,6,13,1,1,8,2,7,1,1,1,771,3,1,MIX,2,7,5,3,355,356,357,358
1454,9,6,14,1,1,2,1,2,1,1,1,1384,359,0,MIX,3,359,NA,NA,NA,NA,NA,NA
1455,9,6,15,1,1,2,1,2,2,1,0,822,5,1,MIX,5,360,NA,NA,NA,NA,NA,NA
1456,9,6,16,2,1,4,0,0,2,1,1,549,363,0,MIX,5,7,361,362,NA,NA,NA,NA
1457,9,6,17,2,1,8,0,0,2,1,1,731,368,0,MIX,4,6,8,3,364,365,366,367
1458,9,6,18,1,1,4,1,4,2,1,0,639,4,1,MIX,4,8,369,370,NA,NA,NA,NA
1459,9,6,19,2,1,8,0,0,1,1,0,1298,15,1,MIX,3,7,5,1,371,372,373,374
1460,9,6,20,1,1,2,1,2,1,1,1,1003,375,0,MIX,5,375,NA,NA,NA,NA,NA,NA
1461,9,6,21,1,1,8,7,2,1,1,1,527,5,1,MIX,7,5,6,3,376,377,378,379
1462,9,6,22,2,1,4,0,0,1,1,0,747,12,1,MIX,3,1,380,381,NA,NA,NA,NA
1463,9,6,23,1,1,8,6,3,1,1,1,657,5,1,MIX,5,8,2,6,382,383,384,385
1464,9,6,24,1,1,8,6,3,1,1,1,532,5,1,MIX,7,5,4,1,386,387,388,389
1465,9,7,1,2,1,4,0,0,2,1,1,590,392,0,MIX,6,2,390,391,NA,NA,NA,NA
1466,9,7,2,1,1,8,8,1,2,1,0,730,395,0,MIX,2,5,6,4,393,394,395,396
1467,9,7,3,1,1,4,2,3,1,0,0,887,3,1,MIX,8,3,397,398,NA,NA,NA,NA
1468,9,7,4,1,1,2,2,1,2,1,0,584,8,1,MIX,8,399,NA,NA,NA,NA,NA,NA
1469,9,7,5,2,1,2,0,0,2,1,1,525,4,1,MIX,6,400,NA,NA,NA,NA,NA,NA
1470,9,7,6,2,1,2,0,0,1,1,0,724,16,1,MIX,8,401,NA,NA,NA,NA,NA,NA
1471,9,7,7,2,1,8,0,0,1,1,0,611,10,1,MIX,5,8,3,7,402,403,404,405
1472,9,7,8,2,1,8,0,0,1,0,1,709,3,1,MIX,1,6,7,8,406,407,408,409
1473,9,7,9,2,1,8,0,0,1,1,0,902,414,0,MIX,3,8,5,6,410,411,412,413
1474,9,7,10,2,1,8,0,0,2,1,1,1238,7,1,MIX,6,7,8,1,415,416,417,418
1475,9,7,11,1,1,2,2,1,1,1,1,738,419,0,MIX,5,419,NA,NA,NA,NA,NA,NA
1476,9,7,12,2,1,4,0,0,2,1,1,631,2,1,MIX,4,2,420,421,NA,NA,NA,NA
1477,9,7,13,1,1,2,1,2,2,1,0,882,422,0,MIX,1,422,NA,NA,NA,NA,NA,NA
1478,9,7,14,2,1,8,0,0,2,1,1,540,427,0,MIX,4,3,1,2,423,424,425,426
1479,9,7,15,2,1,2,0,0,1,1,0,3131,15,1,MIX,4,428,NA,NA,NA,NA,NA,NA
1480,9,7,16,2,1,2,0,0,2,1,1,898,430,0,MIX,6,429,NA,NA,NA,NA,NA,NA
1481,9,7,17,1,1,4,4,1,1,1,1,697,2,1,MIX,2,5,431,432,NA,NA,NA,NA
1482,9,7,18,1,1,4,2,3,2,1,0,1060,433,0,MIX,4,5,433,434,NA,NA,NA,NA
1483,9,7,19,2,1,4,0,0,2,1,1,602,6,1,MIX,4,7,435,436,NA,NA,NA,NA
1484,9,7,20,1,1,8,2,7,2,1,0,847,6,1,MIX,4,6,5,1,437,438,439,440
1485,9,7,21,2,1,2,0,0,1,1,0,1080,15,1,MIX,1,441,NA,NA,NA,NA,NA,NA
1486,9,7,22,2,1,8,0,0,2,1,1,1106,8,1,MIX,6,7,4,1,442,443,444,445
1487,9,7,23,2,1,4,0,0,1,1,0,664,448,0,MIX,1,3,446,447,NA,NA,NA,NA
1488,9,7,24,1,1,2,2,1,2,1,0,682,449,0,MIX,2,449,NA,NA,NA,NA,NA,NA
1489,9,8,1,2,1,2,0,0,2,1,1,565,6,1,MIX,3,450,NA,NA,NA,NA,NA,NA
1490,9,8,2,1,1,4,4,1,2,1,0,929,452,0,MIX,3,8,451,452,NA,NA,NA,NA
1491,9,8,3,1,1,4,3,2,1,1,1,1236,453,0,MIX,2,7,453,454,NA,NA,NA,NA
1492,9,8,4,2,1,8,0,0,1,1,0,863,9,1,MIX,6,8,2,5,455,456,457,458
1493,9,8,5,1,1,2,1,2,2,1,0,786,459,0,MIX,6,459,NA,NA,NA,NA,NA,NA
1494,9,8,6,1,1,8,7,2,2,1,0,728,463,0,MIX,1,5,6,7,460,461,462,463
1495,9,8,7,1,1,4,3,2,2,0,1,1189,6,1,MIX,4,6,464,465,NA,NA,NA,NA
1496,9,8,8,1,1,2,1,2,1,0,0,954,2,1,MIX,2,466,NA,NA,NA,NA,NA,NA
1497,9,8,9,2,1,2,0,0,2,1,1,505,468,0,MIX,7,467,NA,NA,NA,NA,NA,NA
1498,9,8,10,2,1,8,0,0,1,1,0,815,14,1,MIX,3,5,1,6,469,470,471,472
1499,9,8,11,2,1,4,0,0,1,1,0,713,475,0,MIX,1,6,473,474,NA,NA,NA,NA
1500,9,8,12,2,1,8,0,0,2,1,1,1025,480,0,MIX,1,4,7,6,476,477,478,479
1501,9,8,13,1,1,2,1,2,1,1,1,1157,7,1,MIX,7,481,NA,NA,NA,NA,NA,NA
1502,9,8,14,2,1,2,0,0,2,1,1,611,1,1,MIX,7,482,NA,NA,NA,NA,NA,NA
1503,9,8,15,1,1,4,1,4,2,0,1,405,483,0,MIX,6,8,483,484,NA,NA,NA,NA
1504,9,8,16,1,1,8,7,2,2,1,0,849,6,1,MIX,2,6,7,1,485,486,487,488
1505,9,8,17,1,1,2,1,2,2,0,1,620,489,0,MIX,6,489,NA,NA,NA,NA,NA,NA
1506,9,8,18,1,1,8,5,4,2,1,0,944,492,0,MIX,2,4,7,6,490,491,492,493
1507,9,8,19,2,1,2,0,0,1,1,0,735,11,1,MIX,5,494,NA,NA,NA,NA,NA,NA
1508,9,8,20,2,1,8,0,0,2,1,1,685,4,1,MIX,6,7,8,1,495,496,497,498
1509,9,8,21,1,1,8,8,1,2,1,0,803,6,1,MIX,8,6,7,5,499,500,501,502
1510,9,8,22,1,1,4,4,1,1,1,1,514,504,0,MIX,7,2,503,504,NA,NA,NA,NA
1511,9,8,23,2,1,4,0,0,1,1,0,1071,10,1,MIX,5,4,505,506,NA,NA,NA,NA
1512,9,8,24,1,1,8,5,4,2,1,0,592,2,1,MIX,1,2,4,7,507,508,509,510
1513,9,9,1,1,1,2,2,1,2,1,0,445,511,0,MIX,1,511,NA,NA,NA,NA,NA,NA
1514,9,9,2,1,1,8,6,3,1,0,0,738,7,1,MIX,7,4,8,2,512,513,514,515
1515,9,9,3,1,1,8,4,5,2,0,1,514,516,0,MIX,1,5,4,7,516,517,518,519
1516,9,9,4,2,1,8,0,0,2,1,1,992,524,0,MIX,1,8,6,5,520,521,522,523
1517,9,9,5,2,1,2,0,0,2,1,1,2493,526,0,MIX,8,525,NA,NA,NA,NA,NA,NA
1518,9,9,6,1,1,2,2,1,2,1,0,750,8,1,MIX,8,527,NA,NA,NA,NA,NA,NA
1519,9,9,7,1,1,8,4,5,1,1,1,1541,6,1,MIX,1,8,3,6,528,529,530,531
1520,9,9,8,2,1,4,0,0,1,1,0,633,13,1,MIX,4,2,532,533,NA,NA,NA,NA
1521,9,9,9,2,1,4,0,0,2,1,1,450,3,1,MIX,6,4,534,535,NA,NA,NA,NA
1522,9,9,10,2,1,2,0,0,1,1,0,562,537,0,MIX,2,536,NA,NA,NA,NA,NA,NA
1523,9,9,11,2,1,8,0,0,1,1,0,960,542,0,MIX,6,8,5,1,538,539,540,541
1524,9,9,12,2,1,2,0,0,2,1,1,526,3,1,MIX,6,543,NA,NA,NA,NA,NA,NA
1525,9,9,13,2,1,8,0,0,2,1,1,588,2,1,MIX,5,7,6,2,544,545,546,547
1526,9,9,14,2,1,4,0,0,2,1,1,542,550,0,MIX,2,7,548,549,NA,NA,NA,NA
1527,9,9,15,1,1,2,1,2,1,0,0,597,6,1,MIX,6,551,NA,NA,NA,NA,NA,NA
1528,9,9,16,1,1,4,4,1,1,1,1,608,5,1,MIX,3,5,552,553,NA,NA,NA,NA
1529,9,9,17,2,1,8,0,0,2,1,1,733,558,0,MIX,8,7,6,3,554,555,556,557
1530,9,9,18,1,1,8,4,5,2,1,0,820,559,0,MIX,1,3,6,5,559,560,561,562
1531,9,9,19,2,1,2,0,0,1,1,0,1312,564,0,MIX,5,563,NA,NA,NA,NA,NA,NA
1532,9,9,20,1,1,2,2,1,2,1,0,1312,565,0,MIX,8,565,NA,NA,NA,NA,NA,NA
1533,9,9,21,1,1,8,8,1,1,1,1,873,8,1,MIX,4,1,3,8,566,567,568,569
1534,9,9,22,1,1,4,4,1,1,1,1,425,3,1,MIX,7,3,570,571,NA,NA,NA,NA
