,Subnum,Block,Trial,Old,testcdisgard,Setsize,Serpos,Lag,Response,Correctness,Side,RT,WhichProbe,Stimkind,FileCondi,prob1,prob2,prob3,prob4,prob5,prob6,prob7,prob8
1,1,2,1,1,1,8,5,4,1,1,1,1402,3,1,CMpure,16,10,9,14,11,13,15,12
2,1,2,2,1,1,8,7,2,2,1,0,854,8,1,CMpure,6,4,2,5,3,7,8,1
3,1,2,3,2,1,8,0,0,2,1,1,1256,12,1,CMpure,14,11,16,9,10,13,12,15
4,1,2,4,1,1,8,2,7,1,1,1,1098,3,1,CMpure,15,11,16,12,9,13,14,10
5,1,2,5,1,1,2,2,1,1,1,1,753,2,1,CMpure,16,10,NA,NA,NA,NA,NA,NA
6,1,2,6,1,1,2,2,1,2,1,0,760,6,1,CMpure,5,6,NA,NA,NA,NA,NA,NA
7,1,2,7,2,1,2,0,0,2,1,1,782,14,1,CMpure,10,16,NA,NA,NA,NA,NA,NA
8,1,2,8,2,1,4,0,0,1,1,0,583,11,1,CMpure,4,3,5,6,NA,NA,NA,NA
9,1,2,9,1,1,4,1,4,1,0,0,633,5,1,CMpure,5,3,6,1,NA,NA,NA,NA
10,1,2,10,2,1,4,0,0,2,1,1,1065,10,1,CMpure,16,10,15,9,NA,NA,NA,NA
11,1,2,11,2,1,4,0,0,1,1,0,1287,9,1,CMpure,8,7,1,5,NA,NA,NA,NA
12,1,2,12,1,1,4,4,1,1,1,1,733,7,1,CMpure,13,9,10,15,NA,NA,NA,NA
13,1,2,13,2,1,8,0,0,2,1,1,1204,9,1,CMpure,12,16,14,10,11,15,9,13
14,1,2,14,2,1,2,0,0,2,1,1,5528,9,1,CMpure,14,12,NA,NA,NA,NA,NA,NA
15,1,2,15,1,1,4,2,3,1,0,0,805,5,1,CMpure,1,5,6,8,NA,NA,NA,NA
16,1,2,16,2,1,8,0,0,2,1,1,696,11,1,CMpure,14,15,11,12,13,10,16,9
17,1,2,17,2,1,4,0,0,2,1,1,998,16,1,CMpure,9,15,16,11,NA,NA,NA,NA
18,1,2,18,2,1,2,0,0,2,0,0,1169,15,1,CMpure,5,6,NA,NA,NA,NA,NA,NA
19,1,2,19,2,1,4,0,0,2,1,1,908,13,1,CMpure,14,9,15,16,NA,NA,NA,NA
20,1,2,20,1,1,2,2,1,1,1,1,780,8,1,CMpure,9,16,NA,NA,NA,NA,NA,NA
21,1,2,21,2,1,4,0,0,2,1,1,710,11,1,CMpure,16,12,13,11,NA,NA,NA,NA
22,1,2,22,1,1,8,7,2,2,1,0,782,4,1,CMpure,3,6,5,8,2,7,4,1
23,1,2,23,1,1,4,2,3,2,1,0,680,2,1,CMpure,4,2,7,8,NA,NA,NA,NA
24,1,2,24,2,1,8,0,0,2,1,1,1216,16,1,CMpure,15,14,13,9,16,12,10,11
25,1,3,1,2,1,4,0,0,1,1,0,1105,15,1,CMpure,4,1,5,7,NA,NA,NA,NA
26,1,3,2,1,1,8,8,1,2,1,0,777,7,1,CMpure,5,6,4,2,8,1,3,7
27,1,3,3,2,1,4,0,0,1,1,0,1139,9,1,CMpure,5,7,2,1,NA,NA,NA,NA
28,1,3,4,2,1,2,0,0,2,1,1,458,10,1,CMpure,10,15,NA,NA,NA,NA,NA,NA
29,1,3,5,1,1,2,2,1,1,1,1,1004,2,1,CMpure,15,10,NA,NA,NA,NA,NA,NA
30,1,3,6,1,1,8,6,3,2,1,0,632,2,1,CMpure,3,1,6,7,4,2,5,8
31,1,3,7,2,1,2,0,0,2,1,1,1202,14,1,CMpure,14,10,NA,NA,NA,NA,NA,NA
32,1,3,8,2,1,2,0,0,1,1,0,422,15,1,CMpure,8,5,NA,NA,NA,NA,NA,NA
33,1,3,9,2,1,8,0,0,1,1,0,2441,10,1,CMpure,8,6,3,5,7,2,1,4
34,1,3,10,2,1,8,0,0,2,1,1,1099,9,1,CMpure,14,13,9,10,16,15,12,11
35,1,3,11,2,1,8,0,0,1,1,0,611,14,1,CMpure,4,3,1,7,5,8,2,6
36,1,3,12,2,1,4,0,0,1,0,1,836,16,1,CMpure,15,9,14,13,NA,NA,NA,NA
37,1,3,13,2,1,8,0,0,2,1,1,727,11,1,CMpure,10,15,9,12,14,13,11,16
38,1,3,14,2,1,2,0,0,1,1,0,526,11,1,CMpure,5,7,NA,NA,NA,NA,NA,NA
39,1,3,15,2,1,8,0,0,2,1,1,797,15,1,CMpure,14,12,16,10,13,9,11,15
40,1,3,16,1,1,2,1,2,1,1,1,801,1,1,CMpure,9,13,NA,NA,NA,NA,NA,NA
41,1,3,17,2,1,4,0,0,2,1,1,842,12,1,CMpure,9,14,15,12,NA,NA,NA,NA
42,1,3,18,2,1,2,0,0,2,1,1,732,11,1,CMpure,15,14,NA,NA,NA,NA,NA,NA
43,1,3,19,2,1,8,0,0,2,0,0,899,15,1,CMpure,7,1,4,3,6,2,5,8
44,1,3,20,2,1,8,0,0,2,0,0,883,13,1,CMpure,7,2,5,8,1,4,6,3
45,1,3,21,2,1,4,0,0,1,1,0,504,16,1,CMpure,6,4,1,5,NA,NA,NA,NA
46,1,3,22,2,1,4,0,0,2,1,1,845,13,1,CMpure,12,11,16,9,NA,NA,NA,NA
47,1,3,23,2,1,2,0,0,2,1,1,1104,12,1,CMpure,14,13,NA,NA,NA,NA,NA,NA
48,1,3,24,2,1,8,0,0,2,1,1,888,13,1,CMpure,9,14,11,12,10,13,15,16
49,1,4,1,2,1,2,0,0,2,1,1,1959,12,1,CMpure,11,16,NA,NA,NA,NA,NA,NA
50,1,4,2,2,1,2,0,0,2,1,1,1341,9,1,CMpure,13,15,NA,NA,NA,NA,NA,NA
51,1,4,3,2,1,8,0,0,1,1,0,1003,16,1,CMpure,1,8,2,5,6,4,3,7
52,1,4,4,1,1,4,1,4,2,1,0,764,7,1,CMpure,7,1,6,3,NA,NA,NA,NA
53,1,4,5,1,1,8,2,7,2,0,1,706,6,1,CMpure,9,14,16,13,15,12,11,10
54,1,4,6,2,1,2,0,0,2,0,0,857,13,1,CMpure,3,6,NA,NA,NA,NA,NA,NA
55,1,4,7,1,1,8,3,6,2,0,1,683,1,1,CMpure,16,14,9,10,11,12,13,15
56,1,4,8,2,1,8,0,0,2,0,0,916,16,1,CMpure,5,2,7,3,4,6,8,1
57,1,4,9,2,1,4,0,0,1,1,0,536,16,1,CMpure,7,8,3,6,NA,NA,NA,NA
58,1,4,10,2,1,4,0,0,2,1,1,668,10,1,CMpure,9,11,14,10,NA,NA,NA,NA
59,1,4,11,1,1,4,2,3,1,0,0,475,6,1,CMpure,1,6,7,5,NA,NA,NA,NA
60,1,4,12,1,1,8,6,3,1,1,1,812,3,1,CMpure,10,12,15,9,16,11,14,13
61,1,4,13,1,1,8,7,2,1,1,1,496,7,1,CMpure,13,10,11,14,9,16,15,12
62,1,4,14,2,1,8,0,0,1,1,0,1248,16,1,CMpure,4,5,7,3,1,2,6,8
63,1,4,15,1,1,8,3,6,2,0,1,1042,2,1,CMpure,13,11,10,9,14,16,12,15
64,1,4,16,2,1,4,0,0,1,1,0,465,16,1,CMpure,1,7,5,4,NA,NA,NA,NA
65,1,4,17,2,1,2,0,0,2,1,1,451,16,1,CMpure,11,13,NA,NA,NA,NA,NA,NA
66,1,4,18,2,1,8,0,0,2,1,1,869,9,1,CMpure,9,13,10,15,12,14,11,16
67,1,4,19,1,1,2,2,1,1,1,1,390,5,1,CMpure,12,13,NA,NA,NA,NA,NA,NA
68,1,4,20,2,1,4,0,0,1,1,0,560,12,1,CMpure,5,6,2,7,NA,NA,NA,NA
69,1,4,21,2,1,2,0,0,1,1,0,382,16,1,CMpure,6,3,NA,NA,NA,NA,NA,NA
70,1,4,22,2,1,2,0,0,1,1,0,385,9,1,CMpure,3,8,NA,NA,NA,NA,NA,NA
71,1,4,23,2,1,8,0,0,1,1,0,326,12,1,CMpure,4,6,7,8,1,3,2,5
72,1,4,24,2,1,8,0,0,1,1,0,557,11,1,CMpure,2,7,5,8,4,6,3,1
73,1,5,1,2,1,8,0,0,2,1,1,507,14,1,CMpure,10,12,14,11,15,13,16,9
74,1,5,2,1,1,4,3,2,1,1,1,465,8,1,CMpure,10,13,16,9,NA,NA,NA,NA
75,1,5,3,1,1,2,1,2,2,1,0,594,6,1,CMpure,6,7,NA,NA,NA,NA,NA,NA
76,1,5,4,2,1,4,0,0,2,1,1,484,10,1,CMpure,16,9,12,14,NA,NA,NA,NA
77,1,5,5,2,1,4,0,0,1,1,0,602,12,1,CMpure,2,7,1,8,NA,NA,NA,NA
78,1,5,6,2,1,2,0,0,1,1,0,517,12,1,CMpure,2,5,NA,NA,NA,NA,NA,NA
79,1,5,7,2,1,2,0,0,1,1,0,421,16,1,CMpure,6,5,NA,NA,NA,NA,NA,NA
80,1,5,8,1,1,8,1,8,2,1,0,935,5,1,CMpure,5,6,3,4,2,7,1,8
81,1,5,9,1,1,8,6,3,2,1,0,678,6,1,CMpure,2,8,3,1,5,6,4,7
82,1,5,10,1,1,4,4,1,2,1,0,340,1,1,CMpure,6,4,7,1,NA,NA,NA,NA
83,1,5,11,1,1,8,2,7,1,1,1,619,1,1,CMpure,12,9,15,13,10,14,11,16
84,1,5,12,2,1,4,0,0,2,1,1,555,12,1,CMpure,12,9,13,16,NA,NA,NA,NA
85,1,5,13,1,1,4,1,4,1,0,0,366,4,1,CMpure,4,1,7,2,NA,NA,NA,NA
86,1,5,14,2,1,2,0,0,2,1,1,1107,13,1,CMpure,12,9,NA,NA,NA,NA,NA,NA
87,1,5,15,2,1,2,0,0,1,1,0,427,14,1,CMpure,3,4,NA,NA,NA,NA,NA,NA
88,1,5,16,1,1,8,3,6,2,1,0,590,6,1,CMpure,1,7,6,4,8,3,2,5
89,1,5,17,2,1,4,0,0,2,1,1,880,12,1,CMpure,13,10,15,14,NA,NA,NA,NA
90,1,5,18,1,1,2,2,1,2,1,0,561,1,1,CMpure,3,1,NA,NA,NA,NA,NA,NA
91,1,5,19,2,1,8,0,0,1,1,0,750,13,1,CMpure,6,8,7,2,1,3,5,4
92,1,5,20,1,1,2,1,2,1,1,1,788,7,1,CMpure,15,16,NA,NA,NA,NA,NA,NA
93,1,5,21,1,1,4,4,1,1,1,1,366,8,1,CMpure,9,12,11,16,NA,NA,NA,NA
94,1,5,22,1,1,2,2,1,1,1,1,420,5,1,CMpure,15,13,NA,NA,NA,NA,NA,NA
95,1,5,23,2,1,8,0,0,2,0,0,807,15,1,CMpure,2,6,5,4,1,8,3,7
96,1,5,24,1,1,8,6,3,2,1,0,442,7,1,CMpure,6,1,2,5,4,7,3,8
97,1,6,1,2,1,2,0,0,1,1,0,648,11,1,CMpure,6,1,NA,NA,NA,NA,NA,NA
98,1,6,2,2,1,2,0,0,2,1,1,530,14,1,CMpure,16,12,NA,NA,NA,NA,NA,NA
99,1,6,3,1,1,8,2,7,1,1,1,736,4,1,CMpure,16,12,9,15,14,10,11,13
100,1,6,4,1,1,8,1,8,2,0,1,535,6,1,CMpure,14,16,13,12,10,9,15,11
101,1,6,5,2,1,2,0,0,2,0,0,821,12,1,CMpure,4,2,NA,NA,NA,NA,NA,NA
102,1,6,6,1,1,4,1,4,1,0,0,606,1,1,CMpure,1,5,4,6,NA,NA,NA,NA
103,1,6,7,1,1,8,7,2,1,1,1,602,3,1,CMpure,14,16,13,12,15,10,11,9
104,1,6,8,1,1,8,6,3,1,1,1,661,4,1,CMpure,13,15,11,10,14,12,16,9
105,1,6,9,1,1,4,1,4,1,1,1,581,1,1,CMpure,9,13,15,10,NA,NA,NA,NA
106,1,6,10,1,1,8,7,2,1,1,1,705,6,1,CMpure,13,12,11,15,9,16,14,10
107,1,6,11,1,1,4,1,4,1,1,1,574,7,1,CMpure,15,12,16,14,NA,NA,NA,NA
108,1,6,12,2,1,8,0,0,2,1,1,491,11,1,CMpure,12,9,14,11,13,16,15,10
109,1,6,13,1,1,2,1,2,1,1,1,652,6,1,CMpure,14,12,NA,NA,NA,NA,NA,NA
110,1,6,14,1,1,8,1,8,1,0,0,454,8,1,CMpure,8,6,5,3,4,7,2,1
111,1,6,15,1,1,4,2,3,1,1,1,477,6,1,CMpure,16,14,10,12,NA,NA,NA,NA
112,1,6,16,1,1,2,1,2,2,1,0,526,6,1,CMpure,6,8,NA,NA,NA,NA,NA,NA
113,1,6,17,1,1,2,2,1,1,1,1,477,4,1,CMpure,9,12,NA,NA,NA,NA,NA,NA
114,1,6,18,1,1,8,6,3,2,1,0,606,7,1,CMpure,5,8,6,2,1,7,3,4
115,1,6,19,1,1,2,1,2,2,1,0,410,7,1,CMpure,7,2,NA,NA,NA,NA,NA,NA
116,1,6,20,2,1,8,0,0,2,1,1,782,9,1,CMpure,13,14,9,15,16,11,10,12
117,1,6,21,1,1,2,1,2,1,1,1,770,5,1,CMpure,13,15,NA,NA,NA,NA,NA,NA
118,1,6,22,1,1,8,8,1,2,1,0,455,2,1,CMpure,6,8,3,7,5,4,1,2
119,1,6,23,2,1,8,0,0,2,1,1,649,13,1,CMpure,14,15,9,12,10,16,13,11
120,1,6,24,1,1,8,7,2,1,0,0,1523,2,1,CMpure,3,6,1,5,4,7,2,8
121,1,7,1,2,1,4,0,0,2,1,1,562,9,1,CMpure,14,12,13,9,NA,NA,NA,NA
122,1,7,2,1,1,8,7,2,2,1,0,432,7,1,CMpure,6,1,4,5,8,2,7,3
123,1,7,3,1,1,8,2,7,1,0,0,610,4,1,CMpure,1,4,8,5,7,3,6,2
124,1,7,4,2,1,2,0,0,1,0,1,798,9,1,CMpure,11,10,NA,NA,NA,NA,NA,NA
125,1,7,5,1,1,4,2,3,1,0,0,903,3,1,CMpure,7,3,4,2,NA,NA,NA,NA
126,1,7,6,1,1,2,2,1,2,1,0,1351,1,1,CMpure,2,1,NA,NA,NA,NA,NA,NA
127,1,7,7,2,1,4,0,0,2,1,1,842,12,1,CMpure,9,12,10,11,NA,NA,NA,NA
128,1,7,8,1,1,4,1,4,2,0,1,1122,8,1,CMpure,16,11,15,12,NA,NA,NA,NA
129,1,7,9,1,1,8,1,8,2,1,0,745,4,1,CMpure,4,2,8,7,5,1,3,6
130,1,7,10,1,1,4,2,3,2,0,1,645,1,1,CMpure,16,9,10,11,NA,NA,NA,NA
131,1,7,11,1,1,2,2,1,1,1,1,350,7,1,CMpure,16,15,NA,NA,NA,NA,NA,NA
132,1,7,12,1,1,4,1,4,2,1,0,505,7,1,CMpure,7,1,2,6,NA,NA,NA,NA
133,1,7,13,1,1,4,2,3,2,1,0,717,6,1,CMpure,5,6,7,2,NA,NA,NA,NA
134,1,7,14,2,1,8,0,0,1,1,0,515,9,1,CMpure,3,7,5,1,6,8,4,2
135,1,7,15,1,1,8,7,2,2,1,0,435,7,1,CMpure,8,2,4,6,1,5,7,3
136,1,7,16,1,1,8,8,1,1,1,1,581,2,1,CMpure,9,15,14,16,11,13,12,10
137,1,7,17,1,1,8,6,3,2,1,0,978,2,1,CMpure,4,5,1,7,3,2,6,8
138,1,7,18,1,1,8,2,7,2,0,1,431,1,1,CMpure,10,9,14,16,12,11,15,13
139,1,7,19,1,1,4,3,2,1,1,1,677,4,1,CMpure,10,9,12,15,NA,NA,NA,NA
140,1,7,20,1,1,4,3,2,2,1,0,484,2,1,CMpure,5,3,2,6,NA,NA,NA,NA
141,1,7,21,1,1,8,4,5,1,1,1,644,2,1,CMpure,14,9,15,10,13,16,12,11
142,1,7,22,1,1,8,1,8,2,0,1,639,6,1,CMpure,14,15,10,16,9,12,13,11
143,1,7,23,1,1,4,1,4,1,1,1,862,4,1,CMpure,12,16,11,10,NA,NA,NA,NA
144,1,7,24,1,1,2,2,1,2,0,1,480,4,1,CMpure,13,12,NA,NA,NA,NA,NA,NA
145,1,8,1,2,1,2,0,0,1,1,0,627,13,1,CMpure,7,6,NA,NA,NA,NA,NA,NA
146,1,8,2,2,1,8,0,0,1,1,0,527,15,1,CMpure,3,7,2,8,6,5,1,4
147,1,8,3,2,1,2,0,0,2,1,1,526,16,1,CMpure,13,14,NA,NA,NA,NA,NA,NA
148,1,8,4,1,1,8,2,7,2,0,1,477,8,1,CMpure,10,16,15,11,14,12,13,9
149,1,8,5,2,1,4,0,0,2,1,1,660,9,1,CMpure,13,9,16,15,NA,NA,NA,NA
150,1,8,6,2,1,2,0,0,1,1,0,349,13,1,CMpure,7,6,NA,NA,NA,NA,NA,NA
151,1,8,7,1,1,2,2,1,1,1,1,419,8,1,CMpure,10,16,NA,NA,NA,NA,NA,NA
152,1,8,8,2,1,2,0,0,1,1,0,582,16,1,CMpure,6,3,NA,NA,NA,NA,NA,NA
153,1,8,9,1,1,8,6,3,2,1,0,595,2,1,CMpure,1,6,8,3,5,2,7,4
154,1,8,10,1,1,4,3,2,1,1,1,757,6,1,CMpure,13,10,14,9,NA,NA,NA,NA
155,1,8,11,2,1,4,0,0,2,1,1,591,11,1,CMpure,12,15,13,16,NA,NA,NA,NA
156,1,8,12,2,1,8,0,0,1,1,0,396,15,1,CMpure,6,8,3,2,1,7,5,4
157,1,8,13,1,1,4,1,4,2,1,0,438,4,1,CMpure,4,2,8,7,NA,NA,NA,NA
158,1,8,14,2,1,4,0,0,2,1,1,509,16,1,CMpure,9,10,16,11,NA,NA,NA,NA
159,1,8,15,2,1,4,0,0,1,1,0,483,14,1,CMpure,1,4,8,3,NA,NA,NA,NA
160,1,8,16,1,1,4,1,4,2,1,0,569,3,1,CMpure,3,5,2,1,NA,NA,NA,NA
161,1,8,17,1,1,8,8,1,1,1,1,390,7,1,CMpure,11,10,12,13,9,16,14,15
162,1,8,18,1,1,2,2,1,2,1,0,474,2,1,CMpure,4,2,NA,NA,NA,NA,NA,NA
163,1,8,19,1,1,4,1,4,2,1,0,881,3,1,CMpure,3,6,1,4,NA,NA,NA,NA
164,1,8,20,1,1,8,3,6,2,0,1,545,6,1,CMpure,11,10,14,12,13,9,16,15
165,1,8,21,1,1,4,3,2,1,1,1,596,3,1,CMpure,12,10,11,16,NA,NA,NA,NA
166,1,8,22,2,1,8,0,0,2,1,1,864,14,1,CMpure,13,9,14,11,15,16,10,12
167,1,8,23,1,1,2,2,1,1,1,1,370,7,1,CMpure,14,15,NA,NA,NA,NA,NA,NA
168,1,8,24,1,1,8,2,7,2,1,0,759,7,1,CMpure,2,7,4,6,5,3,1,8
169,1,9,1,1,1,4,1,4,2,1,0,556,2,1,CMpure,2,5,8,3,NA,NA,NA,NA
170,1,9,2,1,1,4,3,2,1,0,0,623,5,1,CMpure,8,4,5,3,NA,NA,NA,NA
171,1,9,3,1,1,8,5,4,2,1,0,490,2,1,CMpure,5,8,3,7,2,4,6,1
172,1,9,4,2,1,2,0,0,1,1,0,714,10,1,CMpure,4,5,NA,NA,NA,NA,NA,NA
173,1,9,5,2,1,8,0,0,2,1,1,882,16,1,CMpure,16,15,9,14,13,11,12,10
174,1,9,6,1,1,4,1,4,2,0,1,984,3,1,CMpure,11,13,9,10,NA,NA,NA,NA
175,1,9,7,2,1,2,0,0,1,1,0,468,12,1,CMpure,5,8,NA,NA,NA,NA,NA,NA
176,1,9,8,1,1,4,4,1,2,1,0,458,2,1,CMpure,6,3,1,2,NA,NA,NA,NA
177,1,9,9,2,1,4,0,0,1,1,0,530,13,1,CMpure,1,2,5,3,NA,NA,NA,NA
178,1,9,10,2,1,8,0,0,1,1,0,496,9,1,CMpure,4,2,5,8,1,7,6,3
179,1,9,11,2,1,2,0,0,2,1,1,720,10,1,CMpure,12,15,NA,NA,NA,NA,NA,NA
180,1,9,12,1,1,4,1,4,1,1,1,748,3,1,CMpure,11,16,9,15,NA,NA,NA,NA
181,1,9,13,2,1,8,0,0,2,1,1,658,16,1,CMpure,10,12,15,13,9,11,16,14
182,1,9,14,2,1,8,0,0,2,1,1,620,14,1,CMpure,9,12,14,11,16,10,15,13
183,1,9,15,2,1,8,0,0,1,1,0,615,13,1,CMpure,1,3,8,5,7,4,6,2
184,1,9,16,1,1,8,5,4,1,1,1,594,3,1,CMpure,16,13,15,14,11,12,10,9
185,1,9,17,2,1,2,0,0,2,1,1,2687,9,1,CMpure,15,10,NA,NA,NA,NA,NA,NA
186,1,9,18,2,1,4,0,0,2,1,1,573,14,1,CMpure,14,9,16,12,NA,NA,NA,NA
187,1,9,19,1,1,4,2,3,1,1,1,576,6,1,CMpure,13,14,10,12,NA,NA,NA,NA
188,1,9,20,1,1,4,3,2,2,1,0,498,7,1,CMpure,2,4,7,3,NA,NA,NA,NA
189,1,9,21,2,1,2,0,0,2,1,1,401,16,1,CMpure,9,12,NA,NA,NA,NA,NA,NA
190,1,9,22,2,1,2,0,0,2,1,1,518,9,1,CMpure,11,13,NA,NA,NA,NA,NA,NA
191,1,9,23,2,1,8,0,0,2,1,1,741,9,1,CMpure,15,16,12,9,13,10,11,14
192,1,9,24,1,1,2,2,1,1,1,1,427,1,1,CMpure,15,9,NA,NA,NA,NA,NA,NA
193,2,2,1,1,1,8,2,7,1,1,1,642,3,1,CMpure,12,11,16,9,13,15,14,10
194,2,2,2,1,1,2,2,1,1,1,1,364,6,1,CMpure,10,14,NA,NA,NA,NA,NA,NA
195,2,2,3,1,1,8,4,5,2,1,0,833,8,1,CMpure,2,4,5,8,3,1,6,7
196,2,2,4,2,1,2,0,0,2,1,1,724,15,1,CMpure,16,14,NA,NA,NA,NA,NA,NA
197,2,2,5,1,1,2,2,1,1,1,1,587,2,1,CMpure,11,10,NA,NA,NA,NA,NA,NA
198,2,2,6,2,1,8,0,0,1,1,0,727,13,1,CMpure,5,4,2,3,6,1,7,8
199,2,2,7,2,1,2,0,0,2,1,1,703,12,1,CMpure,14,10,NA,NA,NA,NA,NA,NA
200,2,2,8,2,1,4,0,0,1,0,1,620,12,1,CMpure,14,13,16,12,NA,NA,NA,NA
201,2,2,9,1,1,4,2,3,1,0,0,844,4,1,CMpure,7,4,8,5,NA,NA,NA,NA
202,2,2,10,1,1,4,3,2,1,1,1,723,2,1,CMpure,16,12,10,14,NA,NA,NA,NA
203,2,2,11,2,1,2,0,0,2,1,1,539,9,1,CMpure,16,9,NA,NA,NA,NA,NA,NA
204,2,2,12,1,1,4,4,1,2,1,0,431,2,1,CMpure,7,8,6,2,NA,NA,NA,NA
205,2,2,13,2,1,8,0,0,2,1,1,1057,12,1,CMpure,13,15,12,10,9,16,11,14
206,2,2,14,2,1,2,0,0,2,1,1,651,14,1,CMpure,15,11,NA,NA,NA,NA,NA,NA
207,2,2,15,1,1,2,2,1,1,1,1,597,8,1,CMpure,13,16,NA,NA,NA,NA,NA,NA
208,2,2,16,2,1,2,0,0,1,1,0,481,11,1,CMpure,1,3,NA,NA,NA,NA,NA,NA
209,2,2,17,1,1,4,1,4,1,1,1,567,1,1,CMpure,9,14,11,10,NA,NA,NA,NA
210,2,2,18,2,1,4,0,0,1,1,0,505,13,1,CMpure,6,8,1,2,NA,NA,NA,NA
211,2,2,19,1,1,4,2,3,2,1,0,542,5,1,CMpure,6,5,4,8,NA,NA,NA,NA
212,2,2,20,1,1,2,1,2,2,1,0,445,5,1,CMpure,5,6,NA,NA,NA,NA,NA,NA
213,2,2,21,1,1,8,2,7,1,1,1,591,2,1,CMpure,13,10,12,11,16,9,15,14
214,2,2,22,2,1,4,0,0,2,1,1,577,11,1,CMpure,14,10,12,15,NA,NA,NA,NA
215,2,2,23,2,1,8,0,0,1,1,0,1006,11,1,CMpure,6,7,3,5,2,1,4,8
216,2,2,24,2,1,4,0,0,2,1,1,575,10,1,CMpure,12,11,9,14,NA,NA,NA,NA
217,2,3,1,1,1,8,6,3,1,1,1,591,6,1,CMpure,15,9,12,13,16,14,11,10
218,2,3,2,1,1,8,3,6,2,1,0,475,4,1,CMpure,7,3,4,1,8,6,2,5
219,2,3,3,1,1,2,2,1,1,1,1,332,2,1,CMpure,14,10,NA,NA,NA,NA,NA,NA
220,2,3,4,2,1,8,0,0,2,1,1,579,11,1,CMpure,12,15,16,11,9,14,13,10
221,2,3,5,2,1,4,0,0,2,1,1,453,15,1,CMpure,11,12,15,16,NA,NA,NA,NA
222,2,3,6,1,1,4,3,2,1,1,1,605,5,1,CMpure,10,9,13,14,NA,NA,NA,NA
223,2,3,7,1,1,2,2,1,1,1,1,344,8,1,CMpure,11,16,NA,NA,NA,NA,NA,NA
224,2,3,8,2,1,8,0,0,2,0,0,655,15,1,CMpure,2,3,6,7,1,4,5,8
225,2,3,9,1,1,8,7,2,1,1,1,568,5,1,CMpure,9,15,14,12,16,11,13,10
226,2,3,10,2,1,2,0,0,1,1,0,486,14,1,CMpure,5,2,NA,NA,NA,NA,NA,NA
227,2,3,11,2,1,4,0,0,1,1,0,668,11,1,CMpure,1,6,2,3,NA,NA,NA,NA
228,2,3,12,2,1,8,0,0,2,1,1,565,11,1,CMpure,15,11,13,12,10,14,16,9
229,2,3,13,2,1,2,0,0,1,1,0,450,12,1,CMpure,1,3,NA,NA,NA,NA,NA,NA
230,2,3,14,1,1,8,6,3,1,1,1,564,6,1,CMpure,10,12,15,13,9,14,16,11
231,2,3,15,1,1,4,3,2,1,0,0,550,6,1,CMpure,2,3,6,5,NA,NA,NA,NA
232,2,3,16,1,1,4,2,3,1,1,1,553,7,1,CMpure,11,15,10,12,NA,NA,NA,NA
233,2,3,17,1,1,2,2,1,1,0,0,455,5,1,CMpure,3,5,NA,NA,NA,NA,NA,NA
234,2,3,18,2,1,4,0,0,1,1,0,622,12,1,CMpure,4,5,6,8,NA,NA,NA,NA
235,2,3,19,1,1,8,3,6,2,0,1,681,8,1,CMpure,12,10,16,11,13,15,14,9
236,2,3,20,2,1,4,0,0,2,1,1,535,10,1,CMpure,15,10,12,9,NA,NA,NA,NA
237,2,3,21,2,1,8,0,0,2,1,1,693,11,1,CMpure,14,13,9,10,15,12,16,11
238,2,3,22,1,1,2,1,2,1,1,1,606,4,1,CMpure,12,14,NA,NA,NA,NA,NA,NA
239,2,3,23,2,1,8,0,0,2,1,1,602,15,1,CMpure,12,16,15,14,9,10,13,11
240,2,3,24,1,1,2,1,2,2,1,0,405,8,1,CMpure,8,3,NA,NA,NA,NA,NA,NA
241,2,4,1,2,1,2,0,0,2,1,1,508,16,1,CMpure,9,10,NA,NA,NA,NA,NA,NA
242,2,4,2,2,1,8,0,0,1,1,0,540,13,1,CMpure,7,6,2,1,5,4,3,8
243,2,4,3,1,1,8,1,8,2,1,0,778,4,1,CMpure,4,6,5,7,1,3,2,8
244,2,4,4,1,1,2,1,2,1,1,1,591,4,1,CMpure,12,16,NA,NA,NA,NA,NA,NA
245,2,4,5,2,1,8,0,0,1,1,0,891,9,1,CMpure,5,4,3,1,8,6,7,2
246,2,4,6,1,1,8,5,4,1,0,0,1196,3,1,CMpure,4,1,7,2,3,6,8,5
247,2,4,7,2,1,2,0,0,1,1,0,496,13,1,CMpure,4,2,NA,NA,NA,NA,NA,NA
248,2,4,8,2,1,4,0,0,2,1,1,613,14,1,CMpure,12,14,9,13,NA,NA,NA,NA
249,2,4,9,1,1,8,1,8,1,1,1,752,8,1,CMpure,16,10,11,13,9,15,12,14
250,2,4,10,2,1,4,0,0,2,1,1,636,16,1,CMpure,14,16,11,12,NA,NA,NA,NA
251,2,4,11,1,1,2,2,1,1,1,1,406,1,1,CMpure,15,9,NA,NA,NA,NA,NA,NA
252,2,4,12,1,1,4,2,3,2,1,0,751,2,1,CMpure,5,2,4,1,NA,NA,NA,NA
253,2,4,13,2,1,4,0,0,1,1,0,618,11,1,CMpure,1,5,7,2,NA,NA,NA,NA
254,2,4,14,2,1,8,0,0,2,1,1,597,16,1,CMpure,16,13,10,15,12,11,14,9
255,2,4,15,1,1,4,3,2,1,1,1,1207,6,1,CMpure,11,16,14,9,NA,NA,NA,NA
256,2,4,16,1,1,4,1,4,2,1,0,672,3,1,CMpure,3,8,5,6,NA,NA,NA,NA
257,2,4,17,2,1,2,0,0,2,1,1,553,14,1,CMpure,16,10,NA,NA,NA,NA,NA,NA
258,2,4,18,2,1,8,0,0,1,1,0,583,13,1,CMpure,3,1,5,4,8,6,7,2
259,2,4,19,2,1,2,0,0,2,1,1,451,15,1,CMpure,16,12,NA,NA,NA,NA,NA,NA
260,2,4,20,1,1,2,2,1,2,1,0,421,4,1,CMpure,5,4,NA,NA,NA,NA,NA,NA
261,2,4,21,2,1,4,0,0,1,0,1,670,15,1,CMpure,11,10,14,15,NA,NA,NA,NA
262,2,4,22,2,1,8,0,0,2,0,0,678,14,1,CMpure,8,1,3,2,7,5,6,4
263,2,4,23,2,1,2,0,0,1,1,0,672,14,1,CMpure,7,2,NA,NA,NA,NA,NA,NA
264,2,4,24,2,1,4,0,0,1,1,0,574,11,1,CMpure,5,6,4,7,NA,NA,NA,NA
265,2,5,1,1,1,2,1,2,2,1,0,652,1,1,CMpure,1,6,NA,NA,NA,NA,NA,NA
266,2,5,2,2,1,2,0,0,1,1,0,550,12,1,CMpure,7,4,NA,NA,NA,NA,NA,NA
267,2,5,3,2,1,8,0,0,2,0,0,739,11,1,CMpure,8,1,5,2,7,6,3,4
268,2,5,4,2,1,2,0,0,1,1,0,699,11,1,CMpure,3,6,NA,NA,NA,NA,NA,NA
269,2,5,5,1,1,4,2,3,2,1,0,743,4,1,CMpure,1,4,6,8,NA,NA,NA,NA
270,2,5,6,1,1,4,3,2,1,1,1,579,6,1,CMpure,13,11,14,10,NA,NA,NA,NA
271,2,5,7,1,1,2,2,1,2,1,0,465,8,1,CMpure,4,8,NA,NA,NA,NA,NA,NA
272,2,5,8,2,1,2,0,0,2,1,1,770,9,1,CMpure,11,12,NA,NA,NA,NA,NA,NA
273,2,5,9,1,1,4,2,3,2,1,0,636,8,1,CMpure,1,8,3,6,NA,NA,NA,NA
274,2,5,10,1,1,2,2,1,2,1,0,615,7,1,CMpure,1,7,NA,NA,NA,NA,NA,NA
275,2,5,11,2,1,8,0,0,1,1,0,946,10,1,CMpure,2,5,6,3,8,1,7,4
276,2,5,12,1,1,4,1,4,2,1,0,790,1,1,CMpure,1,2,6,3,NA,NA,NA,NA
277,2,5,13,1,1,2,1,2,1,1,1,330,1,1,CMpure,9,12,NA,NA,NA,NA,NA,NA
278,2,5,14,1,1,4,1,4,2,1,0,598,4,1,CMpure,4,5,1,6,NA,NA,NA,NA
279,2,5,15,1,1,8,7,2,2,1,0,468,4,1,CMpure,5,1,2,6,3,7,4,8
280,2,5,16,1,1,8,7,2,1,0,0,626,6,1,CMpure,4,5,7,8,2,1,6,3
281,2,5,17,2,1,2,0,0,1,1,0,558,11,1,CMpure,1,8,NA,NA,NA,NA,NA,NA
282,2,5,18,1,1,4,4,1,1,1,1,528,1,1,CMpure,13,12,15,9,NA,NA,NA,NA
283,2,5,19,1,1,2,1,2,1,0,0,495,1,1,CMpure,1,3,NA,NA,NA,NA,NA,NA
284,2,5,20,2,1,2,0,0,2,1,1,480,13,1,CMpure,15,11,NA,NA,NA,NA,NA,NA
285,2,5,21,2,1,2,0,0,1,1,0,625,11,1,CMpure,3,7,NA,NA,NA,NA,NA,NA
286,2,5,22,2,1,8,0,0,1,0,1,716,14,1,CMpure,10,13,14,12,15,11,9,16
287,2,5,23,2,1,2,0,0,1,1,0,483,16,1,CMpure,5,3,NA,NA,NA,NA,NA,NA
288,2,5,24,1,1,8,3,6,1,1,1,755,1,1,CMpure,12,10,9,13,15,16,14,11
289,2,6,1,2,1,8,0,0,2,1,1,642,10,1,CMpure,11,16,14,10,12,15,13,9
290,2,6,2,2,1,2,0,0,2,1,1,1084,16,1,CMpure,13,16,NA,NA,NA,NA,NA,NA
291,2,6,3,2,1,8,0,0,2,0,0,1285,16,1,CMpure,8,7,2,5,1,6,4,3
292,2,6,4,2,1,2,0,0,2,1,1,469,16,1,CMpure,16,13,NA,NA,NA,NA,NA,NA
293,2,6,5,1,1,2,2,1,2,1,0,390,5,1,CMpure,8,5,NA,NA,NA,NA,NA,NA
294,2,6,6,1,1,8,8,1,2,1,0,667,3,1,CMpure,4,8,1,7,5,6,2,3
295,2,6,7,1,1,2,1,2,1,1,1,580,1,1,CMpure,9,15,NA,NA,NA,NA,NA,NA
296,2,6,8,2,1,8,0,0,2,0,0,832,9,1,CMpure,5,4,1,3,7,2,6,8
297,2,6,9,2,1,8,0,0,1,0,1,787,9,1,CMpure,11,10,15,16,14,12,13,9
298,2,6,10,2,1,2,0,0,2,1,1,679,11,1,CMpure,11,15,NA,NA,NA,NA,NA,NA
299,2,6,11,2,1,8,0,0,1,1,0,848,16,1,CMpure,5,8,1,6,2,7,4,3
300,2,6,12,1,1,4,3,2,1,1,1,695,2,1,CMpure,11,12,10,15,NA,NA,NA,NA
301,2,6,13,2,1,2,0,0,2,1,1,752,13,1,CMpure,14,12,NA,NA,NA,NA,NA,NA
302,2,6,14,1,1,2,1,2,2,1,0,422,2,1,CMpure,2,4,NA,NA,NA,NA,NA,NA
303,2,6,15,2,1,2,0,0,1,1,0,537,14,1,CMpure,7,5,NA,NA,NA,NA,NA,NA
304,2,6,16,2,1,2,0,0,1,1,0,600,16,1,CMpure,7,6,NA,NA,NA,NA,NA,NA
305,2,6,17,2,1,4,0,0,2,1,1,441,9,1,CMpure,14,12,11,9,NA,NA,NA,NA
306,2,6,18,2,1,4,0,0,2,1,1,864,16,1,CMpure,12,10,11,13,NA,NA,NA,NA
307,2,6,19,2,1,2,0,0,1,0,1,610,16,1,CMpure,11,15,NA,NA,NA,NA,NA,NA
308,2,6,20,1,1,8,5,4,1,1,1,621,4,1,CMpure,16,13,11,9,12,14,15,10
309,2,6,21,2,1,2,0,0,2,1,1,505,15,1,CMpure,10,12,NA,NA,NA,NA,NA,NA
310,2,6,22,1,1,2,2,1,1,1,1,361,4,1,CMpure,13,12,NA,NA,NA,NA,NA,NA
311,2,6,23,2,1,8,0,0,2,0,0,782,10,1,CMpure,6,4,2,3,7,8,1,5
312,2,6,24,1,1,4,3,2,2,1,0,616,7,1,CMpure,4,1,7,8,NA,NA,NA,NA
313,2,7,1,2,1,4,0,0,1,1,0,748,10,1,CMpure,3,4,8,1,NA,NA,NA,NA
314,2,7,2,1,1,8,4,5,2,1,0,578,7,1,CMpure,3,6,4,7,8,5,2,1
315,2,7,3,2,1,2,0,0,2,1,1,431,16,1,CMpure,16,10,NA,NA,NA,NA,NA,NA
316,2,7,4,1,1,8,4,5,2,1,0,1058,6,1,CMpure,7,4,1,6,8,2,5,3
317,2,7,5,2,1,2,0,0,2,1,1,443,13,1,CMpure,13,12,NA,NA,NA,NA,NA,NA
318,2,7,6,1,1,4,2,3,1,1,1,675,7,1,CMpure,16,15,12,9,NA,NA,NA,NA
319,2,7,7,2,1,8,0,0,2,1,1,988,15,1,CMpure,15,16,13,9,11,12,14,10
320,2,7,8,2,1,4,0,0,1,1,0,686,13,1,CMpure,6,7,3,8,NA,NA,NA,NA
321,2,7,9,2,1,4,0,0,1,1,0,891,14,1,CMpure,6,4,5,2,NA,NA,NA,NA
322,2,7,10,2,1,2,0,0,1,0,1,3052,12,1,CMpure,11,9,NA,NA,NA,NA,NA,NA
323,2,7,11,1,1,8,5,4,1,1,1,438,3,1,CMpure,16,12,15,10,11,9,14,13
324,2,7,12,2,1,2,0,0,2,1,1,2104,11,1,CMpure,12,9,NA,NA,NA,NA,NA,NA
325,2,7,13,2,1,8,0,0,2,1,1,552,15,1,CMpure,11,13,16,14,9,10,12,15
326,2,7,14,2,1,4,0,0,2,1,1,491,9,1,CMpure,15,16,11,14,NA,NA,NA,NA
327,2,7,15,1,1,8,4,5,2,1,0,636,6,1,CMpure,8,2,1,6,3,7,5,4
328,2,7,16,2,1,2,0,0,1,1,0,406,14,1,CMpure,1,3,NA,NA,NA,NA,NA,NA
329,2,7,17,2,1,8,0,0,2,0,0,618,12,1,CMpure,1,6,8,7,5,2,4,3
330,2,7,18,2,1,4,0,0,2,1,1,554,15,1,CMpure,12,15,14,10,NA,NA,NA,NA
331,2,7,19,2,1,8,0,0,1,1,0,584,9,1,CMpure,7,3,4,8,5,1,2,6
332,2,7,20,2,1,4,0,0,2,0,0,1018,15,1,CMpure,8,4,7,2,NA,NA,NA,NA
333,2,7,21,2,1,8,0,0,2,1,1,676,11,1,CMpure,12,11,15,16,10,14,13,9
334,2,7,22,2,1,4,0,0,2,1,1,531,14,1,CMpure,16,9,11,14,NA,NA,NA,NA
335,2,7,23,1,1,2,2,1,2,1,0,354,6,1,CMpure,8,6,NA,NA,NA,NA,NA,NA
336,2,7,24,2,1,8,0,0,2,1,1,616,9,1,CMpure,13,12,10,15,16,11,9,14
337,2,8,1,2,1,2,0,0,1,1,0,470,13,1,CMpure,5,7,NA,NA,NA,NA,NA,NA
338,2,8,2,1,1,2,1,2,1,1,1,679,1,1,CMpure,9,11,NA,NA,NA,NA,NA,NA
339,2,8,3,2,1,2,0,0,2,1,1,576,16,1,CMpure,9,12,NA,NA,NA,NA,NA,NA
340,2,8,4,2,1,2,0,0,2,0,0,542,12,1,CMpure,2,5,NA,NA,NA,NA,NA,NA
341,2,8,5,2,1,8,0,0,1,1,0,1740,13,1,CMpure,5,1,8,7,3,4,6,2
342,2,8,6,2,1,8,0,0,2,0,0,682,14,1,CMpure,4,7,5,6,2,8,3,1
343,2,8,7,2,1,8,0,0,1,0,1,723,12,1,CMpure,13,11,12,9,16,10,15,14
344,2,8,8,1,1,4,1,4,2,1,0,736,5,1,CMpure,5,6,2,1,NA,NA,NA,NA
345,2,8,9,1,1,2,2,1,1,1,1,341,3,1,CMpure,15,11,NA,NA,NA,NA,NA,NA
346,2,8,10,1,1,8,1,8,1,1,1,460,1,1,CMpure,9,15,10,11,13,14,16,12
347,2,8,11,2,1,8,0,0,2,0,0,525,10,1,CMpure,3,6,8,5,2,1,4,7
348,2,8,12,1,1,4,3,2,2,1,0,690,7,1,CMpure,1,6,7,5,NA,NA,NA,NA
349,2,8,13,1,1,4,1,4,1,1,1,767,6,1,CMpure,14,13,12,15,NA,NA,NA,NA
350,2,8,14,1,1,2,1,2,2,1,0,597,4,1,CMpure,4,2,NA,NA,NA,NA,NA,NA
351,2,8,15,1,1,8,5,4,2,1,0,464,5,1,CMpure,2,7,4,6,5,3,1,8
352,2,8,16,1,1,4,2,3,1,1,1,583,2,1,CMpure,11,10,12,16,NA,NA,NA,NA
353,2,8,17,2,1,8,0,0,2,0,0,387,13,1,CMpure,6,2,8,4,1,3,5,7
354,2,8,18,1,1,4,2,3,2,1,0,589,7,1,CMpure,4,7,1,2,NA,NA,NA,NA
355,2,8,19,2,1,8,0,0,1,0,1,1274,10,1,CMpure,14,9,10,16,15,12,11,13
356,2,8,20,2,1,4,0,0,1,1,0,624,13,1,CMpure,5,7,4,8,NA,NA,NA,NA
357,2,8,21,2,1,8,0,0,2,1,1,827,15,1,CMpure,15,10,12,16,14,9,11,13
358,2,8,22,2,1,2,0,0,1,1,0,543,16,1,CMpure,2,4,NA,NA,NA,NA,NA,NA
359,2,8,23,1,1,8,4,5,1,1,1,781,5,1,CMpure,9,16,15,13,12,14,11,10
360,2,8,24,2,1,8,0,0,2,0,0,497,9,1,CMpure,1,7,8,6,2,4,5,3
361,2,9,1,1,1,2,1,2,1,1,1,355,3,1,CMpure,11,13,NA,NA,NA,NA,NA,NA
362,2,9,2,2,1,8,0,0,2,0,0,489,11,1,CMpure,6,3,4,1,2,8,5,7
363,2,9,3,1,1,8,3,6,2,1,0,713,3,1,CMpure,5,2,3,8,7,1,6,4
364,2,9,4,2,1,4,0,0,1,0,1,902,14,1,CMpure,13,11,14,16,NA,NA,NA,NA
365,2,9,5,1,1,2,2,1,1,1,1,470,4,1,CMpure,13,12,NA,NA,NA,NA,NA,NA
366,2,9,6,1,1,2,1,2,1,1,1,647,6,1,CMpure,14,9,NA,NA,NA,NA,NA,NA
367,2,9,7,1,1,4,4,1,1,1,1,374,4,1,CMpure,9,13,10,12,NA,NA,NA,NA
368,2,9,8,1,1,8,1,8,2,1,0,843,3,1,CMpure,3,5,6,8,7,1,4,2
369,2,9,9,2,1,2,0,0,2,1,1,542,9,1,CMpure,15,11,NA,NA,NA,NA,NA,NA
370,2,9,10,1,1,8,7,2,1,1,1,669,2,1,CMpure,14,12,15,9,16,13,10,11
371,2,9,11,2,1,2,0,0,1,1,0,1190,11,1,CMpure,3,7,NA,NA,NA,NA,NA,NA
372,2,9,12,1,1,2,1,2,1,1,1,426,3,1,CMpure,11,15,NA,NA,NA,NA,NA,NA
373,2,9,13,1,1,2,1,2,1,1,1,830,6,1,CMpure,14,16,NA,NA,NA,NA,NA,NA
374,2,9,14,2,1,8,0,0,2,1,1,576,10,1,CMpure,16,12,9,10,14,11,15,13
375,2,9,15,1,1,8,4,5,1,1,1,781,6,1,CMpure,12,16,11,14,13,9,10,15
376,2,9,16,2,1,4,0,0,2,1,1,583,16,1,CMpure,12,13,10,9,NA,NA,NA,NA
377,2,9,17,2,1,8,0,0,2,0,0,579,9,1,CMpure,6,1,5,7,8,4,2,3
378,2,9,18,2,1,4,0,0,2,1,1,582,15,1,CMpure,13,15,14,12,NA,NA,NA,NA
379,2,9,19,1,1,4,1,4,1,1,1,536,3,1,CMpure,11,13,12,15,NA,NA,NA,NA
380,2,9,20,1,1,4,4,1,2,1,0,331,6,1,CMpure,3,5,4,6,NA,NA,NA,NA
381,2,9,21,1,1,4,2,3,1,1,1,327,2,1,CMpure,13,10,9,11,NA,NA,NA,NA
382,2,9,22,1,1,4,3,2,2,1,0,467,7,1,CMpure,1,3,7,4,NA,NA,NA,NA
383,2,9,23,2,1,4,0,0,2,1,1,730,9,1,CMpure,15,13,10,16,NA,NA,NA,NA
384,2,9,24,2,1,8,0,0,2,1,1,384,9,1,CMpure,13,11,14,10,9,12,15,16
385,3,2,1,2,1,2,0,0,1,1,0,844,12,1,CMpure,2,7,NA,NA,NA,NA,NA,NA
386,3,2,2,1,1,2,2,1,2,0,1,1071,5,1,CMpure,15,13,NA,NA,NA,NA,NA,NA
387,3,2,3,2,1,8,0,0,1,1,0,825,15,1,CMpure,2,5,4,7,3,1,6,8
388,3,2,4,1,1,2,1,2,2,1,0,796,6,1,CMpure,6,8,NA,NA,NA,NA,NA,NA
389,3,2,5,1,1,2,1,2,1,1,1,785,3,1,CMpure,11,15,NA,NA,NA,NA,NA,NA
390,3,2,6,2,1,2,0,0,2,1,1,678,14,1,CMpure,12,14,NA,NA,NA,NA,NA,NA
391,3,2,7,2,1,2,0,0,1,1,0,576,11,1,CMpure,8,2,NA,NA,NA,NA,NA,NA
392,3,2,8,2,1,8,0,0,1,0,1,797,13,1,CMpure,12,14,11,10,9,16,13,15
393,3,2,9,2,1,8,0,0,1,1,0,738,12,1,CMpure,3,7,4,8,6,2,5,1
394,3,2,10,1,1,8,5,4,1,1,1,825,8,1,CMpure,15,13,10,9,16,14,11,12
395,3,2,11,1,1,2,1,2,2,1,0,989,8,1,CMpure,8,5,NA,NA,NA,NA,NA,NA
396,3,2,12,1,1,2,2,1,2,1,0,746,6,1,CMpure,5,6,NA,NA,NA,NA,NA,NA
397,3,2,13,2,1,8,0,0,2,1,1,705,10,1,CMpure,12,16,11,15,9,10,14,13
398,3,2,14,2,1,2,0,0,2,1,1,1097,14,1,CMpure,16,14,NA,NA,NA,NA,NA,NA
399,3,2,15,2,1,4,0,0,2,1,1,727,12,1,CMpure,14,16,12,11,NA,NA,NA,NA
400,3,2,16,1,1,8,7,2,2,1,0,767,6,1,CMpure,3,5,7,2,4,8,6,1
401,3,2,17,2,1,4,0,0,2,1,1,745,16,1,CMpure,9,13,12,15,NA,NA,NA,NA
402,3,2,18,2,1,4,0,0,2,1,1,646,14,1,CMpure,16,15,9,14,NA,NA,NA,NA
403,3,2,19,1,1,8,7,2,2,1,0,673,6,1,CMpure,3,4,1,8,2,5,6,7
404,3,2,20,1,1,8,3,6,1,1,1,746,7,1,CMpure,14,11,15,10,16,9,12,13
405,3,2,21,1,1,8,2,7,1,1,1,753,6,1,CMpure,9,14,16,13,15,10,12,11
406,3,2,22,2,1,2,0,0,1,1,0,775,15,1,CMpure,4,6,NA,NA,NA,NA,NA,NA
407,3,2,23,1,1,4,3,2,2,1,0,754,6,1,CMpure,5,1,6,8,NA,NA,NA,NA
408,3,2,24,2,1,2,0,0,1,1,0,792,14,1,CMpure,2,7,NA,NA,NA,NA,NA,NA
409,3,3,1,2,1,8,0,0,2,1,1,556,14,1,CMpure,14,11,15,16,9,10,13,12
410,3,3,2,2,1,8,0,0,2,1,1,874,11,1,CMpure,14,12,11,13,10,15,16,9
411,3,3,3,2,1,8,0,0,1,1,0,892,11,1,CMpure,7,4,1,2,6,8,5,3
412,3,3,4,2,1,8,0,0,1,1,0,717,12,1,CMpure,8,4,2,3,5,7,6,1
413,3,3,5,1,1,4,3,2,1,1,1,682,7,1,CMpure,9,11,15,10,NA,NA,NA,NA
414,3,3,6,2,1,4,0,0,1,1,0,696,9,1,CMpure,4,6,8,7,NA,NA,NA,NA
415,3,3,7,1,1,4,1,4,1,1,1,726,5,1,CMpure,13,15,11,9,NA,NA,NA,NA
416,3,3,8,1,1,2,1,2,1,1,1,606,7,1,CMpure,15,12,NA,NA,NA,NA,NA,NA
417,3,3,9,1,1,2,2,1,1,1,1,570,5,1,CMpure,12,13,NA,NA,NA,NA,NA,NA
418,3,3,10,1,1,2,1,2,2,1,0,599,7,1,CMpure,7,5,NA,NA,NA,NA,NA,NA
419,3,3,11,1,1,8,3,6,1,1,1,756,2,1,CMpure,12,15,10,9,16,13,11,14
420,3,3,12,1,1,2,2,1,1,1,1,858,5,1,CMpure,12,13,NA,NA,NA,NA,NA,NA
421,3,3,13,1,1,8,5,4,1,1,1,620,2,1,CMpure,11,12,13,9,10,16,14,15
422,3,3,14,2,1,4,0,0,2,1,1,589,14,1,CMpure,13,11,15,12,NA,NA,NA,NA
423,3,3,15,2,1,8,0,0,1,1,0,730,10,1,CMpure,4,6,5,7,8,3,1,2
424,3,3,16,2,1,8,0,0,1,1,0,658,13,1,CMpure,2,8,6,1,4,5,3,7
425,3,3,17,2,1,4,0,0,1,1,0,817,16,1,CMpure,3,2,7,1,NA,NA,NA,NA
426,3,3,18,2,1,4,0,0,2,1,1,650,15,1,CMpure,16,12,9,11,NA,NA,NA,NA
427,3,3,19,1,1,8,8,1,2,1,0,772,3,1,CMpure,2,5,4,7,1,8,6,3
428,3,3,20,2,1,4,0,0,2,1,1,655,14,1,CMpure,13,11,16,9,NA,NA,NA,NA
429,3,3,21,1,1,2,1,2,1,1,1,505,2,1,CMpure,10,15,NA,NA,NA,NA,NA,NA
430,3,3,22,2,1,2,0,0,2,1,1,601,12,1,CMpure,12,14,NA,NA,NA,NA,NA,NA
431,3,3,23,1,1,4,3,2,2,1,0,635,6,1,CMpure,1,4,6,8,NA,NA,NA,NA
432,3,3,24,2,1,2,0,0,1,1,0,3414,10,1,CMpure,4,1,NA,NA,NA,NA,NA,NA
433,3,4,1,1,1,4,1,4,2,1,0,701,4,1,CMpure,4,6,7,5,NA,NA,NA,NA
434,3,4,2,2,1,2,0,0,2,1,1,645,10,1,CMpure,9,16,NA,NA,NA,NA,NA,NA
435,3,4,3,2,1,4,0,0,1,1,0,709,15,1,CMpure,7,2,6,3,NA,NA,NA,NA
436,3,4,4,2,1,2,0,0,2,1,1,653,14,1,CMpure,12,13,NA,NA,NA,NA,NA,NA
437,3,4,5,1,1,2,2,1,2,1,0,584,8,1,CMpure,5,8,NA,NA,NA,NA,NA,NA
438,3,4,6,1,1,8,1,8,2,0,1,1669,6,1,CMpure,14,12,11,13,10,9,16,15
439,3,4,7,2,1,2,0,0,2,1,1,694,9,1,CMpure,14,15,NA,NA,NA,NA,NA,NA
440,3,4,8,2,1,4,0,0,1,1,0,692,11,1,CMpure,5,8,4,1,NA,NA,NA,NA
441,3,4,9,2,1,8,0,0,2,1,1,765,12,1,CMpure,16,9,13,12,11,15,10,14
442,3,4,10,1,1,4,1,4,1,1,1,664,6,1,CMpure,14,11,16,9,NA,NA,NA,NA
443,3,4,11,2,1,8,0,0,1,1,0,642,10,1,CMpure,4,3,7,2,8,5,6,1
444,3,4,12,1,1,8,7,2,1,1,1,637,8,1,CMpure,15,14,12,13,10,11,16,9
445,3,4,13,2,1,2,0,0,2,1,1,600,14,1,CMpure,13,15,NA,NA,NA,NA,NA,NA
446,3,4,14,2,1,8,0,0,1,1,0,645,14,1,CMpure,3,7,2,5,6,4,1,8
447,3,4,15,1,1,4,1,4,2,1,0,693,6,1,CMpure,6,7,2,3,NA,NA,NA,NA
448,3,4,16,2,1,2,0,0,2,1,1,638,10,1,CMpure,11,14,NA,NA,NA,NA,NA,NA
449,3,4,17,2,1,2,0,0,2,1,1,600,10,1,CMpure,10,13,NA,NA,NA,NA,NA,NA
450,3,4,18,1,1,2,2,1,2,1,0,564,1,1,CMpure,2,1,NA,NA,NA,NA,NA,NA
451,3,4,19,2,1,4,0,0,2,1,1,903,13,1,CMpure,10,13,14,12,NA,NA,NA,NA
452,3,4,20,2,1,8,0,0,2,1,1,840,16,1,CMpure,14,9,10,16,12,11,15,13
453,3,4,21,2,1,4,0,0,2,1,1,880,15,1,CMpure,16,10,15,12,NA,NA,NA,NA
454,3,4,22,1,1,4,1,4,2,1,0,551,8,1,CMpure,8,4,5,2,NA,NA,NA,NA
455,3,4,23,2,1,8,0,0,2,1,1,693,12,1,CMpure,12,9,11,15,14,13,16,10
456,3,4,24,1,1,4,1,4,1,1,1,899,7,1,CMpure,15,11,13,16,NA,NA,NA,NA
457,3,5,1,1,1,4,3,2,2,1,0,700,6,1,CMpure,2,5,6,4,NA,NA,NA,NA
458,3,5,2,1,1,8,7,2,2,1,0,709,4,1,CMpure,6,5,3,7,8,2,4,1
459,3,5,3,1,1,8,7,2,2,1,0,765,1,1,CMpure,5,8,2,3,7,4,1,6
460,3,5,4,2,1,4,0,0,2,1,1,696,12,1,CMpure,12,15,11,13,NA,NA,NA,NA
461,3,5,5,2,1,2,0,0,1,1,0,577,13,1,CMpure,6,5,NA,NA,NA,NA,NA,NA
462,3,5,6,2,1,4,0,0,1,1,0,675,9,1,CMpure,8,3,4,2,NA,NA,NA,NA
463,3,5,7,2,1,4,0,0,1,1,0,658,13,1,CMpure,6,1,2,8,NA,NA,NA,NA
464,3,5,8,2,1,8,0,0,1,1,0,605,9,1,CMpure,6,7,2,1,4,3,8,5
465,3,5,9,2,1,4,0,0,1,1,0,622,15,1,CMpure,3,8,4,5,NA,NA,NA,NA
466,3,5,10,1,1,2,2,1,1,1,1,522,6,1,CMpure,11,14,NA,NA,NA,NA,NA,NA
467,3,5,11,2,1,4,0,0,2,1,1,591,15,1,CMpure,11,13,16,10,NA,NA,NA,NA
468,3,5,12,2,1,2,0,0,2,1,1,619,15,1,CMpure,16,9,NA,NA,NA,NA,NA,NA
469,3,5,13,2,1,4,0,0,2,1,1,540,9,1,CMpure,11,12,13,9,NA,NA,NA,NA
470,3,5,14,1,1,8,8,1,2,1,0,491,8,1,CMpure,2,3,4,1,5,7,6,8
471,3,5,15,2,1,2,0,0,2,1,1,556,13,1,CMpure,14,12,NA,NA,NA,NA,NA,NA
472,3,5,16,1,1,2,2,1,1,1,1,618,6,1,CMpure,12,14,NA,NA,NA,NA,NA,NA
473,3,5,17,2,1,2,0,0,1,1,0,694,12,1,CMpure,2,6,NA,NA,NA,NA,NA,NA
474,3,5,18,1,1,2,1,2,1,1,1,446,5,1,CMpure,13,16,NA,NA,NA,NA,NA,NA
475,3,5,19,1,1,2,2,1,1,1,1,401,2,1,CMpure,14,10,NA,NA,NA,NA,NA,NA
476,3,5,20,1,1,2,1,2,1,1,1,645,7,1,CMpure,15,12,NA,NA,NA,NA,NA,NA
477,3,5,21,2,1,4,0,0,2,1,1,646,14,1,CMpure,15,9,10,11,NA,NA,NA,NA
478,3,5,22,1,1,4,3,2,2,1,0,630,4,1,CMpure,5,1,4,7,NA,NA,NA,NA
479,3,5,23,1,1,4,2,3,2,1,0,455,7,1,CMpure,4,7,6,1,NA,NA,NA,NA
480,3,5,24,2,1,8,0,0,1,1,0,681,15,1,CMpure,3,6,2,7,1,5,4,8
481,3,6,1,2,1,4,0,0,2,1,1,555,12,1,CMpure,9,13,11,14,NA,NA,NA,NA
482,3,6,2,2,1,2,0,0,2,1,1,586,9,1,CMpure,16,13,NA,NA,NA,NA,NA,NA
483,3,6,3,1,1,8,4,5,1,1,1,599,2,1,CMpure,16,14,11,10,15,13,9,12
484,3,6,4,1,1,8,3,6,1,1,1,643,1,1,CMpure,14,10,9,15,12,11,16,13
485,3,6,5,1,1,8,1,8,2,1,0,638,1,1,CMpure,1,5,8,2,4,7,3,6
486,3,6,6,2,1,2,0,0,1,1,0,585,12,1,CMpure,3,1,NA,NA,NA,NA,NA,NA
487,3,6,7,1,1,8,5,4,1,1,1,693,4,1,CMpure,15,16,14,11,12,13,10,9
488,3,6,8,2,1,4,0,0,1,1,0,644,11,1,CMpure,2,7,4,3,NA,NA,NA,NA
489,3,6,9,2,1,8,0,0,2,1,1,575,16,1,CMpure,14,12,10,15,16,13,9,11
490,3,6,10,2,1,8,0,0,2,1,1,668,14,1,CMpure,11,9,16,13,10,14,12,15
491,3,6,11,2,1,8,0,0,2,1,1,566,15,1,CMpure,16,10,11,9,13,12,15,14
492,3,6,12,1,1,4,1,4,1,1,1,745,3,1,CMpure,11,16,15,10,NA,NA,NA,NA
493,3,6,13,1,1,4,1,4,1,1,1,597,4,1,CMpure,12,11,14,9,NA,NA,NA,NA
494,3,6,14,2,1,4,0,0,2,1,1,583,15,1,CMpure,9,14,16,13,NA,NA,NA,NA
495,3,6,15,2,1,2,0,0,1,1,0,3060,10,1,CMpure,4,6,NA,NA,NA,NA,NA,NA
496,3,6,16,2,1,8,0,0,1,1,0,590,15,1,CMpure,1,7,3,2,4,6,5,8
497,3,6,17,1,1,2,2,1,2,1,0,3147,3,1,CMpure,6,3,NA,NA,NA,NA,NA,NA
498,3,6,18,2,1,4,0,0,2,1,1,631,16,1,CMpure,11,16,12,10,NA,NA,NA,NA
499,3,6,19,2,1,4,0,0,1,1,0,488,11,1,CMpure,4,5,1,3,NA,NA,NA,NA
500,3,6,20,1,1,2,1,2,2,1,0,521,2,1,CMpure,2,4,NA,NA,NA,NA,NA,NA
501,3,6,21,2,1,4,0,0,2,1,1,637,14,1,CMpure,16,15,10,13,NA,NA,NA,NA
502,3,6,22,1,1,8,5,4,1,1,1,568,1,1,CMpure,14,10,11,12,9,16,13,15
503,3,6,23,2,1,8,0,0,1,1,0,774,12,1,CMpure,1,3,5,4,6,2,8,7
504,3,6,24,2,1,4,0,0,2,1,1,529,14,1,CMpure,10,13,12,11,NA,NA,NA,NA
505,3,7,1,2,1,2,0,0,1,1,0,615,16,1,CMpure,8,1,NA,NA,NA,NA,NA,NA
506,3,7,2,2,1,4,0,0,2,1,1,584,16,1,CMpure,14,12,10,11,NA,NA,NA,NA
507,3,7,3,1,1,2,1,2,1,1,1,676,4,1,CMpure,12,15,NA,NA,NA,NA,NA,NA
508,3,7,4,1,1,2,2,1,1,1,1,606,3,1,CMpure,12,11,NA,NA,NA,NA,NA,NA
509,3,7,5,1,1,2,1,2,2,1,0,554,7,1,CMpure,7,6,NA,NA,NA,NA,NA,NA
510,3,7,6,1,1,8,4,5,2,1,0,824,4,1,CMpure,3,5,6,4,1,8,2,7
511,3,7,7,1,1,2,2,1,2,1,0,652,5,1,CMpure,2,5,NA,NA,NA,NA,NA,NA
512,3,7,8,2,1,4,0,0,1,1,0,667,13,1,CMpure,3,8,6,4,NA,NA,NA,NA
513,3,7,9,2,1,2,0,0,2,1,1,629,14,1,CMpure,15,12,NA,NA,NA,NA,NA,NA
514,3,7,10,2,1,8,0,0,1,1,0,656,10,1,CMpure,4,2,3,7,8,5,6,1
515,3,7,11,1,1,2,2,1,1,1,1,491,3,1,CMpure,16,11,NA,NA,NA,NA,NA,NA
516,3,7,12,1,1,8,3,6,1,1,1,524,3,1,CMpure,12,13,11,10,15,14,9,16
517,3,7,13,1,1,8,8,1,1,1,1,491,2,1,CMpure,14,9,15,11,13,16,12,10
518,3,7,14,2,1,4,0,0,2,1,1,529,9,1,CMpure,11,14,16,13,NA,NA,NA,NA
519,3,7,15,2,1,8,0,0,1,1,0,609,12,1,CMpure,2,4,6,7,5,1,3,8
520,3,7,16,1,1,4,1,4,1,1,1,611,4,1,CMpure,12,13,11,10,NA,NA,NA,NA
521,3,7,17,2,1,4,0,0,2,1,1,612,14,1,CMpure,11,10,15,12,NA,NA,NA,NA
522,3,7,18,2,1,8,0,0,1,1,0,432,10,1,CMpure,4,8,7,6,1,2,5,3
523,3,7,19,2,1,2,0,0,2,1,1,531,10,1,CMpure,10,16,NA,NA,NA,NA,NA,NA
524,3,7,20,2,1,2,0,0,1,1,0,834,14,1,CMpure,4,3,NA,NA,NA,NA,NA,NA
525,3,7,21,2,1,8,0,0,2,1,1,933,15,1,CMpure,9,14,10,16,12,11,13,15
526,3,7,22,1,1,4,2,3,1,1,1,505,2,1,CMpure,16,10,14,12,NA,NA,NA,NA
527,3,7,23,1,1,4,4,1,2,1,0,431,6,1,CMpure,7,5,2,6,NA,NA,NA,NA
528,3,7,24,1,1,2,2,1,1,1,1,370,1,1,CMpure,12,9,NA,NA,NA,NA,NA,NA
529,3,8,1,2,1,8,0,0,2,1,1,809,10,1,CMpure,9,13,15,10,11,12,14,16
530,3,8,2,2,1,4,0,0,2,1,1,483,15,1,CMpure,14,9,12,13,NA,NA,NA,NA
531,3,8,3,1,1,4,3,2,1,1,1,553,2,1,CMpure,14,11,10,13,NA,NA,NA,NA
532,3,8,4,1,1,8,8,1,2,1,0,567,3,1,CMpure,5,8,7,4,2,6,1,3
533,3,8,5,1,1,4,4,1,2,1,0,570,7,1,CMpure,1,4,8,7,NA,NA,NA,NA
534,3,8,6,1,1,2,1,2,1,1,1,2632,4,1,CMpure,12,15,NA,NA,NA,NA,NA,NA
535,3,8,7,1,1,4,1,4,1,1,1,488,4,1,CMpure,12,16,15,10,NA,NA,NA,NA
536,3,8,8,1,1,2,1,2,2,0,1,505,6,1,CMpure,14,15,NA,NA,NA,NA,NA,NA
537,3,8,9,2,1,4,0,0,2,1,1,606,9,1,CMpure,12,10,9,11,NA,NA,NA,NA
538,3,8,10,1,1,2,1,2,1,1,1,618,7,1,CMpure,15,11,NA,NA,NA,NA,NA,NA
539,3,8,11,1,1,2,1,2,2,1,0,646,8,1,CMpure,8,2,NA,NA,NA,NA,NA,NA
540,3,8,12,2,1,2,0,0,2,1,1,1057,12,1,CMpure,9,12,NA,NA,NA,NA,NA,NA
541,3,8,13,2,1,8,0,0,1,1,0,1067,12,1,CMpure,4,7,3,2,5,8,6,1
542,3,8,14,1,1,2,2,1,2,1,0,469,1,1,CMpure,6,1,NA,NA,NA,NA,NA,NA
543,3,8,15,1,1,2,1,2,2,1,0,1830,2,1,CMpure,2,3,NA,NA,NA,NA,NA,NA
544,3,8,16,1,1,4,4,1,1,1,1,903,1,1,CMpure,13,15,16,9,NA,NA,NA,NA
545,3,8,17,2,1,4,0,0,1,1,0,844,9,1,CMpure,2,8,6,7,NA,NA,NA,NA
546,3,8,18,2,1,4,0,0,2,1,1,581,12,1,CMpure,12,15,10,13,NA,NA,NA,NA
547,3,8,19,2,1,8,0,0,2,1,1,594,14,1,CMpure,13,9,10,16,11,15,14,12
548,3,8,20,1,1,8,3,6,1,1,1,671,6,1,CMpure,15,16,14,9,13,12,11,10
549,3,8,21,2,1,2,0,0,1,1,0,569,10,1,CMpure,8,2,NA,NA,NA,NA,NA,NA
550,3,8,22,1,1,8,8,1,1,1,1,374,1,1,CMpure,15,10,13,14,16,11,12,9
551,3,8,23,1,1,8,8,1,2,1,0,396,2,1,CMpure,6,5,8,4,7,1,3,2
552,3,8,24,2,1,2,0,0,2,1,1,481,15,1,CMpure,16,15,NA,NA,NA,NA,NA,NA
553,3,9,1,1,1,2,2,1,2,1,0,580,5,1,CMpure,1,5,NA,NA,NA,NA,NA,NA
554,3,9,2,1,1,2,2,1,1,1,1,626,6,1,CMpure,13,14,NA,NA,NA,NA,NA,NA
555,3,9,3,1,1,4,1,4,1,1,1,498,5,1,CMpure,13,9,16,14,NA,NA,NA,NA
556,3,9,4,2,1,2,0,0,2,1,1,722,11,1,CMpure,16,14,NA,NA,NA,NA,NA,NA
557,3,9,5,2,1,4,0,0,1,1,0,527,10,1,CMpure,4,3,7,1,NA,NA,NA,NA
558,3,9,6,1,1,8,6,3,1,1,1,687,6,1,CMpure,15,11,10,16,12,14,9,13
559,3,9,7,1,1,2,2,1,1,1,1,488,6,1,CMpure,15,14,NA,NA,NA,NA,NA,NA
560,3,9,8,1,1,8,4,5,1,1,1,617,8,1,CMpure,9,11,10,16,14,15,12,13
561,3,9,9,1,1,8,8,1,1,1,1,373,8,1,CMpure,10,11,14,13,15,9,12,16
562,3,9,10,2,1,8,0,0,2,1,1,746,14,1,CMpure,10,13,15,12,16,14,11,9
563,3,9,11,1,1,4,2,3,1,1,1,566,7,1,CMpure,13,15,10,9,NA,NA,NA,NA
564,3,9,12,1,1,4,2,3,2,1,0,553,8,1,CMpure,6,8,5,4,NA,NA,NA,NA
565,3,9,13,2,1,2,0,0,1,0,1,407,13,1,CMpure,11,13,NA,NA,NA,NA,NA,NA
566,3,9,14,2,1,8,0,0,1,1,0,620,12,1,CMpure,2,8,5,4,7,6,1,3
567,3,9,15,2,1,2,0,0,1,1,0,919,14,1,CMpure,4,3,NA,NA,NA,NA,NA,NA
568,3,9,16,2,1,4,0,0,1,1,0,572,14,1,CMpure,3,8,5,1,NA,NA,NA,NA
569,3,9,17,2,1,2,0,0,2,1,1,585,10,1,CMpure,12,10,NA,NA,NA,NA,NA,NA
570,3,9,18,2,1,4,0,0,2,1,1,380,10,1,CMpure,10,16,9,13,NA,NA,NA,NA
571,3,9,19,2,1,8,0,0,2,1,1,657,9,1,CMpure,14,12,16,13,15,10,9,11
572,3,9,20,2,1,8,0,0,2,1,1,556,9,1,CMpure,13,14,12,10,11,16,15,9
573,3,9,21,1,1,4,1,4,1,1,1,511,5,1,CMpure,13,12,16,9,NA,NA,NA,NA
574,3,9,22,2,1,8,0,0,1,1,0,655,11,1,CMpure,7,6,4,1,8,5,2,3
575,3,9,23,2,1,2,0,0,2,1,1,570,14,1,CMpure,10,9,NA,NA,NA,NA,NA,NA
576,3,9,24,2,1,4,0,0,1,1,0,540,14,1,CMpure,5,3,6,4,NA,NA,NA,NA
577,4,2,1,1,1,2,1,2,1,1,1,537,5,1,CMpure,13,15,NA,NA,NA,NA,NA,NA
578,4,2,2,1,1,2,1,2,2,1,0,487,8,1,CMpure,8,2,NA,NA,NA,NA,NA,NA
579,4,2,3,1,1,4,2,3,1,1,1,605,8,1,CMpure,15,16,11,14,NA,NA,NA,NA
580,4,2,4,2,1,4,0,0,2,1,1,495,15,1,CMpure,13,16,10,14,NA,NA,NA,NA
581,4,2,5,1,1,8,2,7,2,1,0,663,6,1,CMpure,3,6,4,2,5,8,1,7
582,4,2,6,2,1,8,0,0,2,1,1,794,15,1,CMpure,11,15,9,10,16,12,14,13
583,4,2,7,1,1,4,1,4,2,1,0,540,6,1,CMpure,6,2,4,3,NA,NA,NA,NA
584,4,2,8,2,1,4,0,0,1,1,0,656,16,1,CMpure,7,5,6,3,NA,NA,NA,NA
585,4,2,9,2,1,8,0,0,2,1,1,658,14,1,CMpure,16,15,14,11,10,9,13,12
586,4,2,10,1,1,2,1,2,1,1,1,484,4,1,CMpure,12,14,NA,NA,NA,NA,NA,NA
587,4,2,11,2,1,4,0,0,1,1,0,698,15,1,CMpure,7,8,6,5,NA,NA,NA,NA
588,4,2,12,1,1,8,5,4,1,1,1,1522,7,1,CMpure,16,12,13,9,15,14,11,10
589,4,2,13,1,1,4,1,4,1,1,1,743,8,1,CMpure,16,10,15,11,NA,NA,NA,NA
590,4,2,14,1,1,4,2,3,2,1,0,619,3,1,CMpure,6,3,2,7,NA,NA,NA,NA
591,4,2,15,2,1,2,0,0,2,1,1,622,11,1,CMpure,9,14,NA,NA,NA,NA,NA,NA
592,4,2,16,2,1,8,0,0,1,1,0,817,15,1,CMpure,4,2,5,3,8,6,7,1
593,4,2,17,1,1,2,1,2,2,1,0,597,1,1,CMpure,1,6,NA,NA,NA,NA,NA,NA
594,4,2,18,1,1,2,2,1,2,1,0,537,8,1,CMpure,6,8,NA,NA,NA,NA,NA,NA
595,4,2,19,2,1,2,0,0,2,1,1,488,11,1,CMpure,13,10,NA,NA,NA,NA,NA,NA
596,4,2,20,1,1,4,4,1,1,1,1,398,7,1,CMpure,12,11,10,15,NA,NA,NA,NA
597,4,2,21,1,1,4,1,4,2,1,0,952,1,1,CMpure,1,5,8,3,NA,NA,NA,NA
598,4,2,22,1,1,8,4,5,1,1,1,358,5,1,CMpure,11,15,16,13,14,9,10,12
599,4,2,23,2,1,4,0,0,2,1,1,761,10,1,CMpure,9,15,12,16,NA,NA,NA,NA
600,4,2,24,2,1,4,0,0,2,1,1,532,14,1,CMpure,10,16,13,12,NA,NA,NA,NA
601,4,3,1,1,1,4,2,3,1,1,1,694,1,1,CMpure,13,9,10,11,NA,NA,NA,NA
602,4,3,2,1,1,4,4,1,2,1,0,572,4,1,CMpure,6,8,7,4,NA,NA,NA,NA
603,4,3,3,1,1,2,1,2,2,1,0,465,1,1,CMpure,1,3,NA,NA,NA,NA,NA,NA
604,4,3,4,2,1,8,0,0,2,1,1,899,12,1,CMpure,10,12,16,9,13,14,15,11
605,4,3,5,2,1,8,0,0,2,1,1,699,12,1,CMpure,14,13,12,9,16,11,15,10
606,4,3,6,1,1,2,2,1,2,1,0,523,8,1,CMpure,1,8,NA,NA,NA,NA,NA,NA
607,4,3,7,1,1,4,1,4,2,1,0,887,6,1,CMpure,6,2,4,3,NA,NA,NA,NA
608,4,3,8,1,1,2,1,2,2,1,0,688,3,1,CMpure,3,6,NA,NA,NA,NA,NA,NA
609,4,3,9,1,1,2,2,1,1,1,1,449,6,1,CMpure,11,14,NA,NA,NA,NA,NA,NA
610,4,3,10,1,1,8,4,5,2,0,1,723,1,1,CMpure,10,11,12,9,16,15,13,14
611,4,3,11,2,1,2,0,0,2,1,1,522,12,1,CMpure,15,9,NA,NA,NA,NA,NA,NA
612,4,3,12,2,1,2,0,0,1,1,0,538,11,1,CMpure,1,8,NA,NA,NA,NA,NA,NA
613,4,3,13,2,1,8,0,0,2,0,0,840,10,1,CMpure,8,3,4,7,2,6,1,5
614,4,3,14,1,1,8,7,2,2,1,0,635,2,1,CMpure,6,4,8,3,5,7,2,1
615,4,3,15,1,1,2,1,2,1,0,0,902,1,1,CMpure,1,8,NA,NA,NA,NA,NA,NA
616,4,3,16,1,1,4,1,4,2,1,0,571,6,1,CMpure,6,4,7,5,NA,NA,NA,NA
617,4,3,17,2,1,8,0,0,2,0,0,769,9,1,CMpure,6,1,4,3,5,2,8,7
618,4,3,18,1,1,8,7,2,1,1,1,518,4,1,CMpure,9,15,11,10,14,16,12,13
619,4,3,19,1,1,2,1,2,1,1,1,613,2,1,CMpure,10,14,NA,NA,NA,NA,NA,NA
620,4,3,20,2,1,4,0,0,2,1,1,695,13,1,CMpure,13,10,11,9,NA,NA,NA,NA
621,4,3,21,2,1,4,0,0,2,1,1,613,14,1,CMpure,11,16,15,14,NA,NA,NA,NA
622,4,3,22,1,1,4,4,1,1,1,1,622,1,1,CMpure,10,12,16,9,NA,NA,NA,NA
623,4,3,23,2,1,8,0,0,2,1,1,650,11,1,CMpure,16,11,14,10,9,13,12,15
624,4,3,24,1,1,8,1,8,2,1,0,1259,5,1,CMpure,5,7,4,2,8,1,3,6
625,4,4,1,1,1,4,2,3,1,1,1,707,7,1,CMpure,13,15,10,9,NA,NA,NA,NA
626,4,4,2,2,1,8,0,0,1,1,0,547,16,1,CMpure,8,5,6,3,7,1,2,4
627,4,4,3,2,1,2,0,0,1,1,0,673,16,1,CMpure,1,3,NA,NA,NA,NA,NA,NA
628,4,4,4,1,1,4,2,3,1,1,1,584,6,1,CMpure,15,14,16,10,NA,NA,NA,NA
629,4,4,5,1,1,8,2,7,2,1,0,821,2,1,CMpure,5,2,1,6,7,4,8,3
630,4,4,6,1,1,2,2,1,1,1,1,440,2,1,CMpure,16,10,NA,NA,NA,NA,NA,NA
631,4,4,7,2,1,2,0,0,2,1,1,491,13,1,CMpure,13,16,NA,NA,NA,NA,NA,NA
632,4,4,8,2,1,8,0,0,1,1,0,476,12,1,CMpure,6,2,8,1,7,4,3,5
633,4,4,9,2,1,8,0,0,1,0,1,597,14,1,CMpure,14,10,15,13,16,11,12,9
634,4,4,10,2,1,2,0,0,1,1,0,506,12,1,CMpure,4,3,NA,NA,NA,NA,NA,NA
635,4,4,11,2,1,8,0,0,1,1,0,786,14,1,CMpure,2,8,3,4,6,5,7,1
636,4,4,12,1,1,8,7,2,2,1,0,591,2,1,CMpure,5,1,8,3,4,7,2,6
637,4,4,13,2,1,4,0,0,1,1,0,609,10,1,CMpure,8,2,5,6,NA,NA,NA,NA
638,4,4,14,1,1,4,1,4,1,1,1,594,4,1,CMpure,12,13,15,16,NA,NA,NA,NA
639,4,4,15,2,1,8,0,0,1,1,0,527,16,1,CMpure,1,7,4,6,2,8,5,3
640,4,4,16,2,1,2,0,0,1,1,0,478,13,1,CMpure,8,4,NA,NA,NA,NA,NA,NA
641,4,4,17,2,1,8,0,0,2,1,1,920,9,1,CMpure,14,12,16,10,13,9,15,11
642,4,4,18,2,1,8,0,0,2,1,1,495,9,1,CMpure,11,12,9,14,15,16,13,10
643,4,4,19,1,1,2,1,2,1,1,1,392,2,1,CMpure,10,12,NA,NA,NA,NA,NA,NA
644,4,4,20,2,1,2,0,0,2,1,1,541,14,1,CMpure,11,13,NA,NA,NA,NA,NA,NA
645,4,4,21,1,1,2,2,1,1,1,1,443,5,1,CMpure,14,13,NA,NA,NA,NA,NA,NA
646,4,4,22,1,1,4,2,3,1,1,1,587,8,1,CMpure,9,16,11,15,NA,NA,NA,NA
647,4,4,23,1,1,4,2,3,1,1,1,685,2,1,CMpure,16,10,14,11,NA,NA,NA,NA
648,4,4,24,1,1,2,1,2,1,1,1,550,8,1,CMpure,16,11,NA,NA,NA,NA,NA,NA
649,4,5,1,2,1,8,0,0,2,1,1,576,10,1,CMpure,14,15,9,11,13,12,16,10
650,4,5,2,2,1,8,0,0,1,1,0,1334,12,1,CMpure,4,5,6,7,1,3,2,8
651,4,5,3,1,1,8,2,7,2,0,1,845,1,1,CMpure,16,9,14,11,15,13,12,10
652,4,5,4,2,1,4,0,0,2,1,1,549,9,1,CMpure,14,11,15,13,NA,NA,NA,NA
653,4,5,5,1,1,4,3,2,2,1,0,584,5,1,CMpure,1,2,5,7,NA,NA,NA,NA
654,4,5,6,1,1,4,3,2,2,1,0,546,1,1,CMpure,5,4,1,2,NA,NA,NA,NA
655,4,5,7,2,1,4,0,0,1,1,0,518,11,1,CMpure,3,7,2,4,NA,NA,NA,NA
656,4,5,8,1,1,2,1,2,2,1,0,389,3,1,CMpure,3,8,NA,NA,NA,NA,NA,NA
657,4,5,9,2,1,2,0,0,1,1,0,458,11,1,CMpure,4,2,NA,NA,NA,NA,NA,NA
658,4,5,10,1,1,2,1,2,2,1,0,740,2,1,CMpure,2,8,NA,NA,NA,NA,NA,NA
659,4,5,11,2,1,4,0,0,1,0,1,1040,12,1,CMpure,9,14,16,12,NA,NA,NA,NA
660,4,5,12,2,1,8,0,0,2,1,1,1099,10,1,CMpure,11,15,10,14,12,13,9,16
661,4,5,13,1,1,4,1,4,2,0,1,697,3,1,CMpure,11,9,13,10,NA,NA,NA,NA
662,4,5,14,2,1,2,0,0,2,1,1,977,16,1,CMpure,10,9,NA,NA,NA,NA,NA,NA
663,4,5,15,2,1,8,0,0,2,1,1,590,12,1,CMpure,10,12,15,14,13,16,11,9
664,4,5,16,1,1,8,3,6,2,1,0,811,7,1,CMpure,8,2,7,4,1,3,6,5
665,4,5,17,2,1,2,0,0,2,1,1,479,13,1,CMpure,9,16,NA,NA,NA,NA,NA,NA
666,4,5,18,1,1,2,2,1,1,1,1,296,2,1,CMpure,15,10,NA,NA,NA,NA,NA,NA
667,4,5,19,2,1,2,0,0,2,1,1,409,15,1,CMpure,10,13,NA,NA,NA,NA,NA,NA
668,4,5,20,2,1,4,0,0,2,1,1,483,12,1,CMpure,14,15,12,16,NA,NA,NA,NA
669,4,5,21,2,1,4,0,0,2,1,1,553,9,1,CMpure,15,10,12,13,NA,NA,NA,NA
670,4,5,22,2,1,4,0,0,1,1,0,484,16,1,CMpure,8,5,2,7,NA,NA,NA,NA
671,4,5,23,1,1,8,2,7,2,1,0,685,6,1,CMpure,8,6,7,3,4,2,5,1
672,4,5,24,2,1,8,0,0,2,1,1,606,14,1,CMpure,11,12,15,10,16,13,14,9
673,4,6,1,2,1,4,0,0,2,1,1,759,14,1,CMpure,15,10,12,11,NA,NA,NA,NA
674,4,6,2,2,1,2,0,0,1,1,0,485,14,1,CMpure,3,6,NA,NA,NA,NA,NA,NA
675,4,6,3,2,1,8,0,0,2,1,1,469,12,1,CMpure,16,13,15,10,9,12,14,11
676,4,6,4,2,1,2,0,0,1,1,0,383,16,1,CMpure,4,2,NA,NA,NA,NA,NA,NA
677,4,6,5,2,1,2,0,0,2,1,1,1331,15,1,CMpure,13,10,NA,NA,NA,NA,NA,NA
678,4,6,6,2,1,4,0,0,2,1,1,487,12,1,CMpure,15,11,16,13,NA,NA,NA,NA
679,4,6,7,1,1,4,2,3,2,1,0,542,5,1,CMpure,3,5,1,6,NA,NA,NA,NA
680,4,6,8,2,1,2,0,0,1,1,0,388,16,1,CMpure,7,1,NA,NA,NA,NA,NA,NA
681,4,6,9,1,1,2,1,2,2,1,0,361,5,1,CMpure,5,8,NA,NA,NA,NA,NA,NA
682,4,6,10,1,1,4,2,3,1,1,1,548,1,1,CMpure,15,9,13,16,NA,NA,NA,NA
683,4,6,11,1,1,4,2,3,2,1,0,663,1,1,CMpure,7,1,5,8,NA,NA,NA,NA
684,4,6,12,2,1,8,0,0,1,1,0,538,11,1,CMpure,7,5,4,8,2,6,1,3
685,4,6,13,2,1,8,0,0,2,1,1,769,13,1,CMpure,15,16,11,10,13,9,12,14
686,4,6,14,1,1,4,1,4,1,1,1,547,7,1,CMpure,15,16,10,9,NA,NA,NA,NA
687,4,6,15,1,1,8,3,6,2,1,0,610,8,1,CMpure,4,1,8,7,5,3,6,2
688,4,6,16,2,1,8,0,0,1,1,0,622,15,1,CMpure,6,7,1,5,8,2,4,3
689,4,6,17,1,1,2,1,2,2,1,0,513,3,1,CMpure,3,7,NA,NA,NA,NA,NA,NA
690,4,6,18,2,1,8,0,0,2,1,1,722,14,1,CMpure,15,16,11,12,13,9,10,14
691,4,6,19,2,1,2,0,0,2,1,1,977,10,1,CMpure,12,14,NA,NA,NA,NA,NA,NA
692,4,6,20,2,1,2,0,0,2,1,1,590,14,1,CMpure,10,11,NA,NA,NA,NA,NA,NA
693,4,6,21,2,1,2,0,0,1,1,0,491,13,1,CMpure,1,2,NA,NA,NA,NA,NA,NA
694,4,6,22,1,1,2,2,1,1,0,0,476,8,1,CMpure,1,8,NA,NA,NA,NA,NA,NA
695,4,6,23,1,1,4,4,1,2,1,0,426,4,1,CMpure,7,5,8,4,NA,NA,NA,NA
696,4,6,24,2,1,4,0,0,2,1,1,667,14,1,CMpure,12,9,16,11,NA,NA,NA,NA
697,4,7,1,2,1,2,0,0,1,1,0,422,10,1,CMpure,8,1,NA,NA,NA,NA,NA,NA
698,4,7,2,2,1,8,0,0,1,1,0,521,11,1,CMpure,7,2,4,1,8,3,6,5
699,4,7,3,2,1,4,0,0,2,1,1,614,9,1,CMpure,14,9,15,12,NA,NA,NA,NA
700,4,7,4,2,1,8,0,0,1,1,0,690,12,1,CMpure,6,5,4,8,2,7,3,1
701,4,7,5,1,1,2,2,1,2,1,0,483,3,1,CMpure,6,3,NA,NA,NA,NA,NA,NA
702,4,7,6,1,1,2,2,1,1,1,1,419,2,1,CMpure,16,10,NA,NA,NA,NA,NA,NA
703,4,7,7,2,1,4,0,0,2,1,1,500,15,1,CMpure,16,14,11,13,NA,NA,NA,NA
704,4,7,8,2,1,4,0,0,2,1,1,593,12,1,CMpure,11,13,10,16,NA,NA,NA,NA
705,4,7,9,2,1,8,0,0,1,1,0,662,10,1,CMpure,3,8,1,7,5,2,6,4
706,4,7,10,1,1,2,1,2,1,1,1,480,8,1,CMpure,16,12,NA,NA,NA,NA,NA,NA
707,4,7,11,1,1,2,2,1,2,1,0,521,7,1,CMpure,5,7,NA,NA,NA,NA,NA,NA
708,4,7,12,2,1,4,0,0,2,1,1,1230,16,1,CMpure,13,16,11,10,NA,NA,NA,NA
709,4,7,13,1,1,4,2,3,2,1,0,743,1,1,CMpure,5,1,7,2,NA,NA,NA,NA
710,4,7,14,2,1,8,0,0,2,1,1,534,9,1,CMpure,9,14,16,11,12,15,13,10
711,4,7,15,2,1,4,0,0,1,1,0,626,10,1,CMpure,8,4,3,6,NA,NA,NA,NA
712,4,7,16,1,1,8,1,8,1,1,1,453,2,1,CMpure,10,11,14,16,12,15,13,9
713,4,7,17,1,1,8,2,7,2,1,0,559,5,1,CMpure,2,5,3,8,6,1,7,4
714,4,7,18,2,1,2,0,0,1,1,0,430,16,1,CMpure,2,6,NA,NA,NA,NA,NA,NA
715,4,7,19,2,1,2,0,0,1,1,0,448,12,1,CMpure,2,3,NA,NA,NA,NA,NA,NA
716,4,7,20,2,1,4,0,0,2,1,1,728,14,1,CMpure,16,14,9,11,NA,NA,NA,NA
717,4,7,21,1,1,4,3,2,2,1,0,668,3,1,CMpure,4,7,3,8,NA,NA,NA,NA
718,4,7,22,1,1,8,7,2,2,1,0,654,7,1,CMpure,4,8,5,6,3,1,7,2
719,4,7,23,2,1,2,0,0,2,1,1,504,13,1,CMpure,14,12,NA,NA,NA,NA,NA,NA
720,4,7,24,1,1,8,6,3,1,1,1,560,3,1,CMpure,13,14,15,12,10,11,9,16
721,4,8,1,2,1,8,0,0,2,1,1,507,9,1,CMpure,11,14,15,12,10,9,13,16
722,4,8,2,2,1,4,0,0,2,0,0,1001,11,1,CMpure,1,2,6,3,NA,NA,NA,NA
723,4,8,3,1,1,8,6,3,1,1,1,573,8,1,CMpure,12,15,14,13,10,16,11,9
724,4,8,4,1,1,4,2,3,1,1,1,599,1,1,CMpure,13,9,15,14,NA,NA,NA,NA
725,4,8,5,2,1,8,0,0,1,1,0,947,16,1,CMpure,1,2,8,7,3,6,4,5
726,4,8,6,2,1,2,0,0,1,1,0,426,16,1,CMpure,4,6,NA,NA,NA,NA,NA,NA
727,4,8,7,1,1,2,1,2,2,1,0,917,1,1,CMpure,1,2,NA,NA,NA,NA,NA,NA
728,4,8,8,2,1,4,0,0,2,1,1,786,14,1,CMpure,14,11,13,10,NA,NA,NA,NA
729,4,8,9,1,1,2,2,1,1,1,1,495,1,1,CMpure,10,9,NA,NA,NA,NA,NA,NA
730,4,8,10,2,1,2,0,0,2,1,1,519,15,1,CMpure,9,12,NA,NA,NA,NA,NA,NA
731,4,8,11,2,1,2,0,0,1,1,0,623,9,1,CMpure,3,2,NA,NA,NA,NA,NA,NA
732,4,8,12,2,1,8,0,0,2,1,1,1018,11,1,CMpure,9,13,16,10,14,12,15,11
733,4,8,13,2,1,4,0,0,2,1,1,491,12,1,CMpure,11,9,14,12,NA,NA,NA,NA
734,4,8,14,2,1,4,0,0,2,1,1,569,11,1,CMpure,16,11,14,9,NA,NA,NA,NA
735,4,8,15,1,1,4,4,1,2,1,0,500,5,1,CMpure,6,8,1,5,NA,NA,NA,NA
736,4,8,16,1,1,4,4,1,2,1,0,553,8,1,CMpure,3,6,5,8,NA,NA,NA,NA
737,4,8,17,2,1,2,0,0,1,1,0,415,13,1,CMpure,2,8,NA,NA,NA,NA,NA,NA
738,4,8,18,2,1,8,0,0,2,1,1,1666,11,1,CMpure,13,16,15,14,10,9,12,11
739,4,8,19,2,1,2,0,0,1,1,0,428,13,1,CMpure,3,8,NA,NA,NA,NA,NA,NA
740,4,8,20,2,1,4,0,0,2,1,1,893,16,1,CMpure,15,9,12,13,NA,NA,NA,NA
741,4,8,21,2,1,2,0,0,2,1,1,1045,12,1,CMpure,15,9,NA,NA,NA,NA,NA,NA
742,4,8,22,1,1,8,4,5,1,1,1,648,7,1,CMpure,9,14,10,15,16,13,11,12
743,4,8,23,1,1,2,2,1,2,1,0,594,2,1,CMpure,3,2,NA,NA,NA,NA,NA,NA
744,4,8,24,2,1,2,0,0,2,1,1,447,12,1,CMpure,15,13,NA,NA,NA,NA,NA,NA
745,4,9,1,2,1,4,0,0,1,1,0,713,13,1,CMpure,4,7,1,3,NA,NA,NA,NA
746,4,9,2,2,1,2,0,0,1,1,0,602,12,1,CMpure,5,1,NA,NA,NA,NA,NA,NA
747,4,9,3,2,1,2,0,0,1,1,0,414,12,1,CMpure,5,3,NA,NA,NA,NA,NA,NA
748,4,9,4,1,1,4,2,3,1,1,1,543,4,1,CMpure,9,12,14,11,NA,NA,NA,NA
749,4,9,5,1,1,4,1,4,2,1,0,675,3,1,CMpure,3,7,6,8,NA,NA,NA,NA
750,4,9,6,2,1,2,0,0,2,1,1,485,14,1,CMpure,14,11,NA,NA,NA,NA,NA,NA
751,4,9,7,1,1,4,3,2,2,1,0,419,1,1,CMpure,3,7,1,6,NA,NA,NA,NA
752,4,9,8,1,1,8,5,4,1,1,1,542,5,1,CMpure,10,16,15,9,13,12,11,14
753,4,9,9,1,1,8,3,6,2,1,0,613,2,1,CMpure,6,7,2,1,3,8,5,4
754,4,9,10,2,1,2,0,0,2,1,1,801,16,1,CMpure,16,9,NA,NA,NA,NA,NA,NA
755,4,9,11,2,1,8,0,0,2,1,1,541,10,1,CMpure,13,9,15,16,12,11,14,10
756,4,9,12,1,1,8,2,7,1,0,0,683,6,1,CMpure,8,6,3,2,7,4,1,5
757,4,9,13,1,1,8,2,7,1,1,1,660,3,1,CMpure,10,11,16,13,15,9,14,12
758,4,9,14,2,1,8,0,0,1,1,0,750,11,1,CMpure,7,2,4,5,1,8,6,3
759,4,9,15,2,1,4,0,0,1,1,0,778,9,1,CMpure,3,4,6,1,NA,NA,NA,NA
760,4,9,16,1,1,2,1,2,1,1,1,399,1,1,CMpure,9,10,NA,NA,NA,NA,NA,NA
761,4,9,17,2,1,2,0,0,1,1,0,443,12,1,CMpure,3,4,NA,NA,NA,NA,NA,NA
762,4,9,18,1,1,8,2,7,2,1,0,630,4,1,CMpure,7,4,6,5,2,1,3,8
763,4,9,19,2,1,4,0,0,1,1,0,470,11,1,CMpure,4,5,3,1,NA,NA,NA,NA
764,4,9,20,1,1,4,2,3,2,1,0,557,6,1,CMpure,7,6,5,1,NA,NA,NA,NA
765,4,9,21,2,1,2,0,0,1,1,0,419,14,1,CMpure,5,2,NA,NA,NA,NA,NA,NA
766,4,9,22,1,1,4,3,2,1,1,1,612,5,1,CMpure,15,9,13,12,NA,NA,NA,NA
767,4,9,23,2,1,4,0,0,2,1,1,517,16,1,CMpure,16,12,13,9,NA,NA,NA,NA
768,4,9,24,1,1,4,2,3,1,1,1,634,3,1,CMpure,9,11,10,15,NA,NA,NA,NA
769,5,2,1,1,1,2,2,1,1,1,1,859,5,1,CMpure,12,13,NA,NA,NA,NA,NA,NA
770,5,2,2,2,1,4,0,0,1,1,0,1347,16,1,CMpure,7,8,6,2,NA,NA,NA,NA
771,5,2,3,2,1,2,0,0,2,1,1,1170,9,1,CMpure,12,13,NA,NA,NA,NA,NA,NA
772,5,2,4,2,1,8,0,0,1,0,1,1432,15,1,CMpure,12,10,14,11,9,15,16,13
773,5,2,5,2,1,4,0,0,1,1,0,2001,13,1,CMpure,5,3,4,2,NA,NA,NA,NA
774,5,2,6,1,1,4,3,2,1,1,1,1475,5,1,CMpure,12,11,13,10,NA,NA,NA,NA
775,5,2,7,2,1,2,0,0,2,1,1,1693,14,1,CMpure,13,10,NA,NA,NA,NA,NA,NA
776,5,2,8,1,1,4,2,3,1,0,0,3644,2,1,CMpure,7,2,5,8,NA,NA,NA,NA
777,5,2,9,1,1,8,5,4,2,1,0,1792,3,1,CMpure,5,2,6,4,3,7,1,8
778,5,2,10,2,1,8,0,0,1,1,0,974,11,1,CMpure,8,4,5,1,7,2,3,6
779,5,2,11,1,1,2,1,2,1,1,1,1012,1,1,CMpure,9,12,NA,NA,NA,NA,NA,NA
780,5,2,12,2,1,8,0,0,1,1,0,1241,14,1,CMpure,7,8,2,3,1,5,6,4
781,5,2,13,1,1,4,3,2,1,1,1,906,1,1,CMpure,12,16,9,13,NA,NA,NA,NA
782,5,2,14,2,1,8,0,0,1,1,0,1611,9,1,CMpure,3,7,4,6,8,1,5,2
783,5,2,15,1,1,4,4,1,2,1,0,1406,1,1,CMpure,8,3,2,1,NA,NA,NA,NA
784,5,2,16,2,1,8,0,0,2,0,0,1643,13,1,CMpure,2,4,1,7,6,8,5,3
785,5,2,17,2,1,4,0,0,1,1,0,1036,14,1,CMpure,1,2,4,3,NA,NA,NA,NA
786,5,2,18,2,1,8,0,0,1,1,0,895,10,1,CMpure,8,6,4,5,7,3,1,2
787,5,2,19,2,1,2,0,0,2,1,1,657,10,1,CMpure,10,12,NA,NA,NA,NA,NA,NA
788,5,2,20,1,1,8,5,4,1,1,1,1220,3,1,CMpure,9,13,14,10,11,12,15,16
789,5,2,21,2,1,4,0,0,2,0,0,2493,9,1,CMpure,8,3,7,5,NA,NA,NA,NA
790,5,2,22,2,1,8,0,0,2,1,1,1335,15,1,CMpure,10,12,14,9,13,15,16,11
791,5,2,23,2,1,2,0,0,2,1,1,1079,10,1,CMpure,13,9,NA,NA,NA,NA,NA,NA
792,5,2,24,1,1,2,2,1,1,1,1,800,2,1,CMpure,14,10,NA,NA,NA,NA,NA,NA
793,5,3,1,2,1,2,0,0,2,1,1,1011,16,1,CMpure,14,13,NA,NA,NA,NA,NA,NA
794,5,3,2,1,1,4,2,3,2,1,0,1173,4,1,CMpure,2,4,3,1,NA,NA,NA,NA
795,5,3,3,1,1,2,1,2,1,1,1,1115,7,1,CMpure,15,11,NA,NA,NA,NA,NA,NA
796,5,3,4,2,1,4,0,0,1,1,0,1217,16,1,CMpure,1,6,3,4,NA,NA,NA,NA
797,5,3,5,1,1,2,2,1,1,1,1,956,6,1,CMpure,15,14,NA,NA,NA,NA,NA,NA
798,5,3,6,1,1,4,1,4,2,1,0,1104,4,1,CMpure,4,5,3,6,NA,NA,NA,NA
799,5,3,7,2,1,8,0,0,2,1,1,753,15,1,CMpure,9,14,10,13,12,15,11,16
800,5,3,8,2,1,4,0,0,2,1,1,702,15,1,CMpure,12,13,11,15,NA,NA,NA,NA
801,5,3,9,2,1,8,0,0,2,1,1,759,14,1,CMpure,11,14,12,10,13,9,16,15
802,5,3,10,2,1,4,0,0,2,1,1,811,14,1,CMpure,9,12,16,11,NA,NA,NA,NA
803,5,3,11,2,1,4,0,0,1,1,0,869,16,1,CMpure,5,8,3,2,NA,NA,NA,NA
804,5,3,12,1,1,4,1,4,2,1,0,1820,3,1,CMpure,3,2,7,6,NA,NA,NA,NA
805,5,3,13,2,1,4,0,0,1,1,0,862,15,1,CMpure,1,6,4,5,NA,NA,NA,NA
806,5,3,14,1,1,2,2,1,1,1,1,769,7,1,CMpure,11,15,NA,NA,NA,NA,NA,NA
807,5,3,15,2,1,2,0,0,2,1,1,550,14,1,CMpure,9,15,NA,NA,NA,NA,NA,NA
808,5,3,16,1,1,4,1,4,1,0,0,771,3,1,CMpure,3,6,8,4,NA,NA,NA,NA
809,5,3,17,1,1,8,4,5,1,1,1,1273,6,1,CMpure,13,11,16,14,15,10,9,12
810,5,3,18,2,1,8,0,0,1,1,0,980,9,1,CMpure,3,5,7,8,4,1,2,6
811,5,3,19,1,1,2,1,2,2,1,0,3737,4,1,CMpure,4,8,NA,NA,NA,NA,NA,NA
812,5,3,20,2,1,4,0,0,2,1,1,815,9,1,CMpure,16,13,11,15,NA,NA,NA,NA
813,5,3,21,1,1,2,2,1,1,1,1,635,8,1,CMpure,14,16,NA,NA,NA,NA,NA,NA
814,5,3,22,1,1,2,1,2,2,1,0,774,5,1,CMpure,5,1,NA,NA,NA,NA,NA,NA
815,5,3,23,2,1,4,0,0,1,0,1,1009,13,1,CMpure,11,12,15,14,NA,NA,NA,NA
816,5,3,24,2,1,4,0,0,2,1,1,803,10,1,CMpure,16,13,9,11,NA,NA,NA,NA
817,5,4,1,2,1,2,0,0,1,1,0,1139,13,1,CMpure,4,1,NA,NA,NA,NA,NA,NA
818,5,4,2,1,1,4,1,4,1,1,1,952,5,1,CMpure,13,14,10,9,NA,NA,NA,NA
819,5,4,3,2,1,4,0,0,1,1,0,708,11,1,CMpure,5,3,7,8,NA,NA,NA,NA
820,5,4,4,1,1,2,2,1,1,1,1,868,4,1,CMpure,14,12,NA,NA,NA,NA,NA,NA
821,5,4,5,1,1,4,2,3,1,0,0,1012,8,1,CMpure,6,8,4,5,NA,NA,NA,NA
822,5,4,6,1,1,4,4,1,2,1,0,1046,5,1,CMpure,2,1,7,5,NA,NA,NA,NA
823,5,4,7,2,1,8,0,0,1,0,1,1074,9,1,CMpure,9,15,16,10,13,11,14,12
824,5,4,8,2,1,8,0,0,1,0,1,788,16,1,CMpure,13,15,12,11,9,14,16,10
825,5,4,9,1,1,4,4,1,1,1,1,999,4,1,CMpure,16,10,15,12,NA,NA,NA,NA
826,5,4,10,2,1,2,0,0,1,1,0,700,13,1,CMpure,8,5,NA,NA,NA,NA,NA,NA
827,5,4,11,1,1,4,1,4,2,1,0,1538,3,1,CMpure,3,1,7,8,NA,NA,NA,NA
828,5,4,12,2,1,2,0,0,2,1,1,601,14,1,CMpure,11,16,NA,NA,NA,NA,NA,NA
829,5,4,13,2,1,2,0,0,1,0,1,901,14,1,CMpure,12,14,NA,NA,NA,NA,NA,NA
830,5,4,14,2,1,4,0,0,1,0,1,716,9,1,CMpure,16,14,10,13,NA,NA,NA,NA
831,5,4,15,1,1,4,4,1,2,1,0,1073,7,1,CMpure,5,8,1,7,NA,NA,NA,NA
832,5,4,16,1,1,8,1,8,2,1,0,1156,8,1,CMpure,8,3,6,2,4,1,5,7
833,5,4,17,2,1,8,0,0,2,1,1,1323,15,1,CMpure,11,10,13,16,15,12,9,14
834,5,4,18,2,1,8,0,0,1,0,1,1035,10,1,CMpure,9,12,13,14,15,10,16,11
835,5,4,19,2,1,4,0,0,1,1,0,996,10,1,CMpure,2,1,7,6,NA,NA,NA,NA
836,5,4,20,2,1,8,0,0,2,0,0,1122,14,1,CMpure,7,3,4,2,6,1,5,8
837,5,4,21,1,1,2,2,1,2,1,0,2002,2,1,CMpure,5,2,NA,NA,NA,NA,NA,NA
838,5,4,22,1,1,2,1,2,1,1,1,1207,3,1,CMpure,11,15,NA,NA,NA,NA,NA,NA
839,5,4,23,2,1,8,0,0,1,1,0,1452,10,1,CMpure,4,2,1,7,6,5,3,8
840,5,4,24,2,1,4,0,0,1,1,0,876,12,1,CMpure,6,4,3,8,NA,NA,NA,NA
841,5,5,1,1,1,8,5,4,2,1,0,1688,3,1,CMpure,8,2,5,6,3,4,1,7
842,5,5,2,1,1,8,4,5,2,1,0,1322,5,1,CMpure,8,4,6,5,2,3,7,1
843,5,5,3,1,1,4,2,3,1,1,1,1423,7,1,CMpure,13,15,10,14,NA,NA,NA,NA
844,5,5,4,2,1,4,0,0,2,1,1,921,11,1,CMpure,15,14,12,16,NA,NA,NA,NA
845,5,5,5,1,1,8,4,5,2,1,0,1393,3,1,CMpure,7,6,8,3,5,2,4,1
846,5,5,6,1,1,4,2,3,2,1,0,908,7,1,CMpure,4,7,6,3,NA,NA,NA,NA
847,5,5,7,2,1,8,0,0,1,1,0,1093,9,1,CMpure,5,8,7,6,3,1,2,4
848,5,5,8,2,1,8,0,0,2,1,1,1327,12,1,CMpure,11,15,9,14,10,16,12,13
849,5,5,9,2,1,2,0,0,1,1,0,647,9,1,CMpure,5,2,NA,NA,NA,NA,NA,NA
850,5,5,10,2,1,8,0,0,2,0,0,1043,10,1,CMpure,1,5,6,8,7,2,4,3
851,5,5,11,2,1,8,0,0,2,1,1,854,14,1,CMpure,13,11,16,15,14,10,12,9
852,5,5,12,2,1,2,0,0,2,1,1,937,9,1,CMpure,12,11,NA,NA,NA,NA,NA,NA
853,5,5,13,2,1,4,0,0,1,1,0,653,9,1,CMpure,1,5,6,3,NA,NA,NA,NA
854,5,5,14,2,1,2,0,0,2,1,1,704,16,1,CMpure,10,9,NA,NA,NA,NA,NA,NA
855,5,5,15,2,1,8,0,0,1,0,1,857,9,1,CMpure,9,12,16,11,13,15,14,10
856,5,5,16,1,1,2,1,2,2,1,0,668,5,1,CMpure,5,4,NA,NA,NA,NA,NA,NA
857,5,5,17,2,1,2,0,0,1,1,0,710,15,1,CMpure,8,1,NA,NA,NA,NA,NA,NA
858,5,5,18,1,1,4,2,3,1,1,1,1052,3,1,CMpure,16,11,10,13,NA,NA,NA,NA
859,5,5,19,2,1,8,0,0,1,1,0,1791,11,1,CMpure,5,4,6,3,1,7,2,8
860,5,5,20,2,1,8,0,0,2,1,1,1029,12,1,CMpure,15,10,13,14,16,9,12,11
861,5,5,21,1,1,4,1,4,2,1,0,1238,6,1,CMpure,6,7,2,5,NA,NA,NA,NA
862,5,5,22,2,1,2,0,0,1,1,0,434,16,1,CMpure,7,1,NA,NA,NA,NA,NA,NA
863,5,5,23,1,1,8,4,5,2,1,0,1973,4,1,CMpure,1,7,6,4,2,5,8,3
864,5,5,24,2,1,2,0,0,2,1,1,980,15,1,CMpure,11,16,NA,NA,NA,NA,NA,NA
865,5,6,1,1,1,8,8,1,1,1,1,903,5,1,CMpure,16,11,10,9,15,12,14,13
866,5,6,2,1,1,4,2,3,1,1,1,806,2,1,CMpure,15,10,16,9,NA,NA,NA,NA
867,5,6,3,1,1,8,8,1,2,1,0,1443,4,1,CMpure,7,6,5,3,1,8,2,4
868,5,6,4,1,1,8,6,3,1,1,1,7118,2,1,CMpure,11,9,12,16,13,10,15,14
869,5,6,5,1,1,8,3,6,2,1,0,2408,2,1,CMpure,8,7,2,3,6,5,4,1
870,5,6,6,2,1,2,0,0,1,1,0,700,9,1,CMpure,3,6,NA,NA,NA,NA,NA,NA
871,5,6,7,2,1,4,0,0,1,1,0,651,12,1,CMpure,1,7,3,4,NA,NA,NA,NA
872,5,6,8,1,1,4,3,2,2,1,0,1235,4,1,CMpure,8,7,4,2,NA,NA,NA,NA
873,5,6,9,1,1,8,6,3,2,1,0,566,6,1,CMpure,4,3,2,7,8,6,1,5
874,5,6,10,1,1,4,2,3,1,1,1,1994,6,1,CMpure,15,14,16,10,NA,NA,NA,NA
875,5,6,11,2,1,8,0,0,2,1,1,952,14,1,CMpure,9,16,12,11,14,15,10,13
876,5,6,12,1,1,8,2,7,2,1,0,1087,1,1,CMpure,5,1,2,7,6,4,3,8
877,5,6,13,1,1,4,3,2,2,1,0,902,1,1,CMpure,2,4,1,3,NA,NA,NA,NA
878,5,6,14,2,1,8,0,0,1,0,1,1335,13,1,CMpure,9,12,16,10,11,13,14,15
879,5,6,15,1,1,2,2,1,2,1,0,654,1,1,CMpure,3,1,NA,NA,NA,NA,NA,NA
880,5,6,16,1,1,8,5,4,1,1,1,665,2,1,CMpure,13,16,15,12,10,11,9,14
881,5,6,17,2,1,4,0,0,2,1,1,721,10,1,CMpure,14,12,13,16,NA,NA,NA,NA
882,5,6,18,2,1,2,0,0,2,0,0,4073,16,1,CMpure,8,2,NA,NA,NA,NA,NA,NA
883,5,6,19,2,1,8,0,0,1,1,0,604,13,1,CMpure,3,2,5,6,1,8,4,7
884,5,6,20,2,1,4,0,0,1,1,0,486,9,1,CMpure,8,2,4,6,NA,NA,NA,NA
885,5,6,21,2,1,4,0,0,2,1,1,684,10,1,CMpure,14,10,13,9,NA,NA,NA,NA
886,5,6,22,1,1,4,4,1,1,1,1,667,3,1,CMpure,9,16,15,11,NA,NA,NA,NA
887,5,6,23,2,1,4,0,0,1,1,0,714,11,1,CMpure,4,7,2,6,NA,NA,NA,NA
888,5,6,24,2,1,2,0,0,1,1,0,602,16,1,CMpure,5,1,NA,NA,NA,NA,NA,NA
889,5,7,1,2,1,4,0,0,1,1,0,627,10,1,CMpure,3,4,7,1,NA,NA,NA,NA
890,5,7,2,2,1,2,0,0,2,1,1,775,12,1,CMpure,16,11,NA,NA,NA,NA,NA,NA
891,5,7,3,1,1,4,3,2,1,1,1,819,1,1,CMpure,15,16,9,11,NA,NA,NA,NA
892,5,7,4,2,1,4,0,0,2,1,1,796,9,1,CMpure,16,15,9,11,NA,NA,NA,NA
893,5,7,5,2,1,2,0,0,2,0,0,2673,11,1,CMpure,5,3,NA,NA,NA,NA,NA,NA
894,5,7,6,1,1,8,3,6,1,1,1,1028,4,1,CMpure,16,15,12,9,11,13,10,14
895,5,7,7,1,1,4,2,3,2,0,1,1078,2,1,CMpure,14,10,15,9,NA,NA,NA,NA
896,5,7,8,1,1,2,1,2,1,1,1,2743,3,1,CMpure,11,9,NA,NA,NA,NA,NA,NA
897,5,7,9,2,1,2,0,0,2,1,1,1567,15,1,CMpure,16,15,NA,NA,NA,NA,NA,NA
898,5,7,10,2,1,2,0,0,1,1,0,541,16,1,CMpure,2,7,NA,NA,NA,NA,NA,NA
899,5,7,11,1,1,8,5,4,2,1,0,645,1,1,CMpure,8,4,7,6,1,5,3,2
900,5,7,12,2,1,2,0,0,1,1,0,904,16,1,CMpure,4,5,NA,NA,NA,NA,NA,NA
901,5,7,13,1,1,2,2,1,2,1,0,632,2,1,CMpure,3,2,NA,NA,NA,NA,NA,NA
902,5,7,14,2,1,4,0,0,2,1,1,793,11,1,CMpure,15,13,16,11,NA,NA,NA,NA
903,5,7,15,2,1,8,0,0,2,1,1,879,9,1,CMpure,9,12,13,11,10,16,14,15
904,5,7,16,1,1,2,1,2,1,1,1,833,7,1,CMpure,15,13,NA,NA,NA,NA,NA,NA
905,5,7,17,2,1,2,0,0,2,0,0,1676,15,1,CMpure,1,7,NA,NA,NA,NA,NA,NA
906,5,7,18,1,1,4,1,4,2,1,0,11627,8,1,CMpure,8,5,2,6,NA,NA,NA,NA
907,5,7,19,2,1,4,0,0,1,1,0,430,12,1,CMpure,1,2,6,5,NA,NA,NA,NA
908,5,7,20,1,1,8,8,1,2,0,1,450,4,1,CMpure,10,9,15,16,11,14,13,12
909,5,7,21,2,1,2,0,0,1,1,0,572,11,1,CMpure,8,4,NA,NA,NA,NA,NA,NA
910,5,7,22,1,1,8,6,3,1,1,1,1051,3,1,CMpure,14,16,12,15,13,11,10,9
911,5,7,23,2,1,8,0,0,1,1,0,1486,12,1,CMpure,7,1,6,3,2,4,5,8
912,5,7,24,1,1,4,1,4,2,1,0,749,7,1,CMpure,7,5,4,2,NA,NA,NA,NA
913,5,8,1,2,1,8,0,0,1,0,1,696,12,1,CMpure,11,9,10,15,16,14,12,13
914,5,8,2,1,1,4,1,4,1,1,1,959,3,1,CMpure,11,9,10,13,NA,NA,NA,NA
915,5,8,3,2,1,8,0,0,2,0,0,958,13,1,CMpure,4,8,3,7,5,6,1,2
916,5,8,4,2,1,2,0,0,2,1,1,876,15,1,CMpure,9,13,NA,NA,NA,NA,NA,NA
917,5,8,5,1,1,4,4,1,1,1,1,740,6,1,CMpure,15,9,13,14,NA,NA,NA,NA
918,5,8,6,2,1,8,0,0,1,1,0,980,14,1,CMpure,2,1,4,6,7,5,3,8
919,5,8,7,1,1,2,2,1,2,1,0,794,1,1,CMpure,7,1,NA,NA,NA,NA,NA,NA
920,5,8,8,2,1,4,0,0,2,1,1,780,12,1,CMpure,13,16,15,10,NA,NA,NA,NA
921,5,8,9,2,1,4,0,0,2,1,1,1103,12,1,CMpure,12,11,13,16,NA,NA,NA,NA
922,5,8,10,2,1,4,0,0,2,1,1,1029,9,1,CMpure,10,16,12,14,NA,NA,NA,NA
923,5,8,11,1,1,8,5,4,2,1,0,2202,4,1,CMpure,6,7,2,1,4,3,8,5
924,5,8,12,2,1,2,0,0,1,1,0,487,15,1,CMpure,4,8,NA,NA,NA,NA,NA,NA
925,5,8,13,2,1,4,0,0,1,0,1,3413,9,1,CMpure,12,13,11,10,NA,NA,NA,NA
926,5,8,14,2,1,4,0,0,1,1,0,663,9,1,CMpure,8,3,2,6,NA,NA,NA,NA
927,5,8,15,1,1,2,1,2,2,0,1,745,8,1,CMpure,16,12,NA,NA,NA,NA,NA,NA
928,5,8,16,1,1,2,1,2,1,1,1,937,4,1,CMpure,12,13,NA,NA,NA,NA,NA,NA
929,5,8,17,1,1,2,1,2,2,1,0,728,6,1,CMpure,6,4,NA,NA,NA,NA,NA,NA
930,5,8,18,2,1,8,0,0,2,1,1,2264,15,1,CMpure,13,12,15,10,14,9,11,16
931,5,8,19,2,1,2,0,0,2,0,0,1962,14,1,CMpure,6,8,NA,NA,NA,NA,NA,NA
932,5,8,20,1,1,4,2,3,1,1,1,1335,2,1,CMpure,9,10,12,13,NA,NA,NA,NA
933,5,8,21,2,1,2,0,0,1,1,0,1390,16,1,CMpure,8,7,NA,NA,NA,NA,NA,NA
934,5,8,22,1,1,4,3,2,2,1,0,1513,2,1,CMpure,8,4,2,3,NA,NA,NA,NA
935,5,8,23,1,1,4,2,3,2,1,0,743,5,1,CMpure,6,5,8,1,NA,NA,NA,NA
936,5,8,24,1,1,8,7,2,1,1,1,1031,8,1,CMpure,14,13,15,12,11,10,16,9
937,5,9,1,1,1,8,5,4,1,1,1,1141,3,1,CMpure,16,12,10,14,11,15,9,13
938,5,9,2,2,1,8,0,0,2,1,1,677,15,1,CMpure,11,9,12,10,14,16,13,15
939,5,9,3,1,1,2,1,2,2,1,0,1223,2,1,CMpure,2,7,NA,NA,NA,NA,NA,NA
940,5,9,4,2,1,4,0,0,1,0,1,4768,12,1,CMpure,14,10,16,11,NA,NA,NA,NA
941,5,9,5,1,1,8,5,4,2,1,0,1119,8,1,CMpure,3,2,5,7,8,4,1,6
942,5,9,6,2,1,4,0,0,2,1,1,541,14,1,CMpure,10,11,13,9,NA,NA,NA,NA
943,5,9,7,2,1,2,0,0,2,1,1,444,11,1,CMpure,16,15,NA,NA,NA,NA,NA,NA
944,5,9,8,1,1,4,4,1,1,1,1,925,6,1,CMpure,10,12,15,14,NA,NA,NA,NA
945,5,9,9,2,1,8,0,0,2,1,1,1069,15,1,CMpure,10,14,13,16,11,12,9,15
946,5,9,10,1,1,8,2,7,2,1,0,1560,3,1,CMpure,8,3,5,7,6,1,2,4
947,5,9,11,2,1,4,0,0,2,0,0,644,15,1,CMpure,4,1,5,6,NA,NA,NA,NA
948,5,9,12,2,1,2,0,0,2,1,1,3047,14,1,CMpure,16,12,NA,NA,NA,NA,NA,NA
949,5,9,13,2,1,2,0,0,1,1,0,394,9,1,CMpure,6,5,NA,NA,NA,NA,NA,NA
950,5,9,14,1,1,8,5,4,2,0,1,1888,7,1,CMpure,10,9,11,12,15,16,13,14
951,5,9,15,2,1,8,0,0,1,0,1,481,15,1,CMpure,16,15,12,10,14,9,11,13
952,5,9,16,1,1,8,2,7,2,1,0,1323,5,1,CMpure,1,5,2,8,6,3,4,7
953,5,9,17,2,1,4,0,0,2,1,1,657,9,1,CMpure,15,12,14,13,NA,NA,NA,NA
954,5,9,18,1,1,8,2,7,2,1,0,828,5,1,CMpure,6,5,1,3,2,8,4,7
955,5,9,19,2,1,8,0,0,1,0,1,2697,13,1,CMpure,10,16,11,13,14,15,9,12
956,5,9,20,1,1,8,5,4,1,1,1,1066,3,1,CMpure,10,16,14,12,11,9,15,13
957,5,9,21,1,1,8,8,1,2,1,0,828,7,1,CMpure,6,5,3,8,1,4,2,7
958,5,9,22,1,1,8,4,5,2,0,1,1081,3,1,CMpure,15,16,13,11,14,10,9,12
959,5,9,23,1,1,2,2,1,2,1,0,618,2,1,CMpure,3,2,NA,NA,NA,NA,NA,NA
960,5,9,24,2,1,2,0,0,1,1,0,494,9,1,CMpure,7,2,NA,NA,NA,NA,NA,NA
961,6,2,1,1,1,2,1,2,1,1,1,2374,3,1,CMpure,11,10,NA,NA,NA,NA,NA,NA
962,6,2,2,2,1,2,0,0,1,1,0,1195,12,1,CMpure,3,8,NA,NA,NA,NA,NA,NA
963,6,2,3,1,1,4,4,1,1,1,1,1029,6,1,CMpure,15,10,13,14,NA,NA,NA,NA
964,6,2,4,1,1,2,2,1,1,1,1,520,3,1,CMpure,9,11,NA,NA,NA,NA,NA,NA
965,6,2,5,1,1,4,3,2,2,1,0,741,5,1,CMpure,4,1,5,2,NA,NA,NA,NA
966,6,2,6,2,1,8,0,0,1,1,0,3452,10,1,CMpure,5,4,3,2,1,6,8,7
967,6,2,7,1,1,2,1,2,1,0,0,1990,2,1,CMpure,2,8,NA,NA,NA,NA,NA,NA
968,6,2,8,2,1,4,0,0,1,1,0,1592,13,1,CMpure,2,5,4,8,NA,NA,NA,NA
969,6,2,9,1,1,8,3,6,1,1,1,893,8,1,CMpure,15,14,16,10,13,12,11,9
970,6,2,10,1,1,8,1,8,1,0,0,877,2,1,CMpure,2,1,6,7,5,4,8,3
971,6,2,11,2,1,8,0,0,1,1,0,783,14,1,CMpure,7,6,1,8,3,4,5,2
972,6,2,12,1,1,4,4,1,1,1,1,665,4,1,CMpure,16,9,14,12,NA,NA,NA,NA
973,6,2,13,1,1,8,1,8,2,0,1,1914,8,1,CMpure,16,14,11,15,12,10,9,13
974,6,2,14,2,1,2,0,0,1,1,0,1778,9,1,CMpure,5,8,NA,NA,NA,NA,NA,NA
975,6,2,15,1,1,4,2,3,2,1,0,1196,3,1,CMpure,8,3,5,7,NA,NA,NA,NA
976,6,2,16,2,1,2,0,0,1,1,0,1481,12,1,CMpure,5,1,NA,NA,NA,NA,NA,NA
977,6,2,17,2,1,4,0,0,1,1,0,1279,13,1,CMpure,2,5,8,6,NA,NA,NA,NA
978,6,2,18,2,1,2,0,0,2,1,1,1001,15,1,CMpure,15,9,NA,NA,NA,NA,NA,NA
979,6,2,19,2,1,4,0,0,1,1,0,554,14,1,CMpure,4,5,2,7,NA,NA,NA,NA
980,6,2,20,1,1,2,2,1,1,0,0,592,8,1,CMpure,2,8,NA,NA,NA,NA,NA,NA
981,6,2,21,2,1,2,0,0,2,1,1,821,15,1,CMpure,14,9,NA,NA,NA,NA,NA,NA
982,6,2,22,2,1,4,0,0,1,1,0,2709,14,1,CMpure,7,6,1,5,NA,NA,NA,NA
983,6,2,23,1,1,2,2,1,1,1,1,982,4,1,CMpure,11,12,NA,NA,NA,NA,NA,NA
984,6,2,24,1,1,2,1,2,2,1,0,762,8,1,CMpure,8,5,NA,NA,NA,NA,NA,NA
985,6,3,1,2,1,2,0,0,1,0,1,2462,16,1,CMpure,12,9,NA,NA,NA,NA,NA,NA
986,6,3,2,1,1,4,3,2,2,1,0,1390,6,1,CMpure,1,2,6,7,NA,NA,NA,NA
987,6,3,3,1,1,8,6,3,1,1,1,866,5,1,CMpure,10,16,12,15,14,13,9,11
988,6,3,4,1,1,4,3,2,2,1,0,1721,6,1,CMpure,5,2,6,3,NA,NA,NA,NA
989,6,3,5,2,1,8,0,0,1,1,0,1072,9,1,CMpure,6,8,4,3,7,5,2,1
990,6,3,6,1,1,4,4,1,2,1,0,911,2,1,CMpure,8,5,7,2,NA,NA,NA,NA
991,6,3,7,1,1,4,3,2,1,1,1,788,3,1,CMpure,9,10,11,12,NA,NA,NA,NA
992,6,3,8,1,1,8,7,2,2,1,0,721,1,1,CMpure,3,8,7,4,5,2,1,6
993,6,3,9,2,1,8,0,0,1,1,0,777,9,1,CMpure,1,3,7,5,6,2,8,4
994,6,3,10,1,1,2,2,1,2,1,0,758,6,1,CMpure,8,6,NA,NA,NA,NA,NA,NA
995,6,3,11,1,1,4,2,3,1,1,1,746,3,1,CMpure,10,11,16,14,NA,NA,NA,NA
996,6,3,12,1,1,8,3,6,2,0,1,848,1,1,CMpure,13,12,9,11,14,15,16,10
997,6,3,13,1,1,2,2,1,1,1,1,634,7,1,CMpure,13,15,NA,NA,NA,NA,NA,NA
998,6,3,14,1,1,2,2,1,1,1,1,861,8,1,CMpure,9,16,NA,NA,NA,NA,NA,NA
999,6,3,15,2,1,4,0,0,1,1,0,1540,11,1,CMpure,6,2,5,8,NA,NA,NA,NA
1000,6,3,16,1,1,4,1,4,2,1,0,816,8,1,CMpure,8,3,5,1,NA,NA,NA,NA
1001,6,3,17,1,1,2,2,1,1,1,1,612,2,1,CMpure,14,10,NA,NA,NA,NA,NA,NA
1002,6,3,18,1,1,8,1,8,1,1,1,760,1,1,CMpure,9,14,10,15,13,16,12,11
1003,6,3,19,1,1,8,3,6,2,0,1,934,6,1,CMpure,9,13,14,15,16,10,12,11
1004,6,3,20,1,1,2,2,1,1,1,1,1461,8,1,CMpure,11,16,NA,NA,NA,NA,NA,NA
1005,6,3,21,2,1,2,0,0,1,1,0,967,11,1,CMpure,1,8,NA,NA,NA,NA,NA,NA
1006,6,3,22,1,1,4,3,2,2,1,0,825,3,1,CMpure,2,1,3,5,NA,NA,NA,NA
1007,6,3,23,1,1,8,7,2,2,1,0,621,1,1,CMpure,4,2,6,8,7,3,1,5
1008,6,3,24,1,1,2,1,2,2,1,0,496,6,1,CMpure,6,5,NA,NA,NA,NA,NA,NA
1009,6,4,1,1,1,8,1,8,2,1,0,1990,4,1,CMpure,4,7,1,6,3,8,2,5
1010,6,4,2,1,1,8,8,1,1,1,1,475,5,1,CMpure,9,14,10,16,15,11,12,13
1011,6,4,3,2,1,8,0,0,1,1,0,1956,10,1,CMpure,3,5,7,6,8,4,1,2
1012,6,4,4,2,1,2,0,0,1,1,0,914,14,1,CMpure,2,5,NA,NA,NA,NA,NA,NA
1013,6,4,5,1,1,4,2,3,1,1,1,791,1,1,CMpure,14,9,10,16,NA,NA,NA,NA
1014,6,4,6,1,1,4,2,3,1,1,1,601,1,1,CMpure,11,9,15,10,NA,NA,NA,NA
1015,6,4,7,2,1,8,0,0,2,0,0,1133,12,1,CMpure,8,2,3,5,7,1,6,4
1016,6,4,8,2,1,8,0,0,1,1,0,828,14,1,CMpure,6,4,8,2,5,7,1,3
1017,6,4,9,1,1,2,1,2,2,1,0,959,6,1,CMpure,6,7,NA,NA,NA,NA,NA,NA
1018,6,4,10,1,1,8,5,4,2,1,0,1909,4,1,CMpure,8,1,3,6,4,5,2,7
1019,6,4,11,2,1,4,0,0,2,1,1,866,16,1,CMpure,9,10,15,11,NA,NA,NA,NA
1020,6,4,12,1,1,2,1,2,1,1,1,795,3,1,CMpure,11,13,NA,NA,NA,NA,NA,NA
1021,6,4,13,1,1,8,5,4,1,0,0,1464,2,1,CMpure,1,5,4,8,2,7,3,6
1022,6,4,14,2,1,2,0,0,1,1,0,938,11,1,CMpure,3,2,NA,NA,NA,NA,NA,NA
1023,6,4,15,2,1,2,0,0,2,1,1,880,12,1,CMpure,13,16,NA,NA,NA,NA,NA,NA
1024,6,4,16,2,1,2,0,0,2,1,1,737,9,1,CMpure,12,14,NA,NA,NA,NA,NA,NA
1025,6,4,17,1,1,2,2,1,2,1,0,976,5,1,CMpure,2,5,NA,NA,NA,NA,NA,NA
1026,6,4,18,1,1,4,2,3,2,1,0,1171,1,1,CMpure,5,1,6,4,NA,NA,NA,NA
1027,6,4,19,1,1,2,2,1,2,1,0,928,7,1,CMpure,8,7,NA,NA,NA,NA,NA,NA
1028,6,4,20,2,1,4,0,0,1,1,0,1717,13,1,CMpure,8,1,4,6,NA,NA,NA,NA
1029,6,4,21,2,1,4,0,0,2,1,1,882,12,1,CMpure,15,10,12,9,NA,NA,NA,NA
1030,6,4,22,2,1,4,0,0,2,1,1,1656,12,1,CMpure,15,12,16,14,NA,NA,NA,NA
1031,6,4,23,2,1,4,0,0,1,1,0,719,11,1,CMpure,5,4,2,8,NA,NA,NA,NA
1032,6,4,24,2,1,2,0,0,2,1,1,3422,10,1,CMpure,12,16,NA,NA,NA,NA,NA,NA
1033,6,5,1,1,1,2,2,1,1,1,1,651,8,1,CMpure,10,16,NA,NA,NA,NA,NA,NA
1034,6,5,2,1,1,2,2,1,1,1,1,773,7,1,CMpure,13,15,NA,NA,NA,NA,NA,NA
1035,6,5,3,2,1,2,0,0,2,1,1,1066,15,1,CMpure,16,12,NA,NA,NA,NA,NA,NA
1036,6,5,4,1,1,8,3,6,1,1,1,915,4,1,CMpure,13,11,12,9,14,16,10,15
1037,6,5,5,2,1,8,0,0,1,1,0,1555,12,1,CMpure,5,4,8,2,7,3,6,1
1038,6,5,6,1,1,2,1,2,2,1,0,649,3,1,CMpure,3,5,NA,NA,NA,NA,NA,NA
1039,6,5,7,1,1,8,6,3,1,1,1,731,5,1,CMpure,10,11,9,15,16,13,12,14
1040,6,5,8,1,1,8,7,2,1,1,1,866,2,1,CMpure,13,12,11,16,9,14,10,15
1041,6,5,9,1,1,8,6,3,1,1,1,683,6,1,CMpure,9,13,15,16,10,14,12,11
1042,6,5,10,1,1,2,2,1,2,1,0,508,3,1,CMpure,6,3,NA,NA,NA,NA,NA,NA
1043,6,5,11,2,1,8,0,0,1,1,0,748,12,1,CMpure,4,6,7,5,1,8,3,2
1044,6,5,12,1,1,2,2,1,2,1,0,1026,8,1,CMpure,2,8,NA,NA,NA,NA,NA,NA
1045,6,5,13,2,1,2,0,0,1,1,0,661,14,1,CMpure,2,8,NA,NA,NA,NA,NA,NA
1046,6,5,14,1,1,2,1,2,2,1,0,1183,7,1,CMpure,7,3,NA,NA,NA,NA,NA,NA
1047,6,5,15,2,1,2,0,0,2,1,1,852,10,1,CMpure,14,15,NA,NA,NA,NA,NA,NA
1048,6,5,16,1,1,8,2,7,1,1,1,1190,8,1,CMpure,11,16,12,15,9,10,14,13
1049,6,5,17,2,1,8,0,0,2,1,1,1115,10,1,CMpure,10,11,16,15,13,14,12,9
1050,6,5,18,1,1,8,5,4,1,0,0,874,4,1,CMpure,6,1,5,8,4,3,7,2
1051,6,5,19,1,1,4,2,3,1,0,0,1161,2,1,CMpure,6,2,1,3,NA,NA,NA,NA
1052,6,5,20,2,1,4,0,0,1,1,0,1260,15,1,CMpure,6,3,4,1,NA,NA,NA,NA
1053,6,5,21,1,1,4,2,3,1,1,1,692,2,1,CMpure,16,10,13,15,NA,NA,NA,NA
1054,6,5,22,2,1,2,0,0,2,1,1,812,12,1,CMpure,9,11,NA,NA,NA,NA,NA,NA
1055,6,5,23,2,1,4,0,0,2,1,1,1366,16,1,CMpure,16,15,11,13,NA,NA,NA,NA
1056,6,5,24,2,1,8,0,0,1,0,1,2427,16,1,CMpure,9,13,11,14,10,15,16,12
1057,6,6,1,2,1,2,0,0,1,1,0,646,13,1,CMpure,5,3,NA,NA,NA,NA,NA,NA
1058,6,6,2,2,1,4,0,0,1,1,0,966,9,1,CMpure,1,8,2,4,NA,NA,NA,NA
1059,6,6,3,1,1,8,7,2,1,1,1,652,5,1,CMpure,12,10,15,11,16,14,13,9
1060,6,6,4,2,1,2,0,0,2,1,1,726,16,1,CMpure,16,9,NA,NA,NA,NA,NA,NA
1061,6,6,5,1,1,2,1,2,1,0,0,1901,4,1,CMpure,4,6,NA,NA,NA,NA,NA,NA
1062,6,6,6,2,1,4,0,0,1,1,0,1099,14,1,CMpure,6,5,4,7,NA,NA,NA,NA
1063,6,6,7,1,1,4,2,3,1,1,1,728,6,1,CMpure,11,14,9,12,NA,NA,NA,NA
1064,6,6,8,2,1,8,0,0,2,1,1,5239,12,1,CMpure,14,13,9,15,10,16,12,11
1065,6,6,9,1,1,2,1,2,2,1,0,890,3,1,CMpure,3,8,NA,NA,NA,NA,NA,NA
1066,6,6,10,1,1,2,2,1,2,1,0,691,8,1,CMpure,4,8,NA,NA,NA,NA,NA,NA
1067,6,6,11,1,1,4,2,3,1,1,1,657,4,1,CMpure,15,12,14,11,NA,NA,NA,NA
1068,6,6,12,1,1,4,4,1,2,1,0,528,1,1,CMpure,5,6,3,1,NA,NA,NA,NA
1069,6,6,13,1,1,2,1,2,2,1,0,832,3,1,CMpure,3,1,NA,NA,NA,NA,NA,NA
1070,6,6,14,2,1,8,0,0,1,1,0,1018,13,1,CMpure,2,7,3,1,6,8,4,5
1071,6,6,15,1,1,2,1,2,2,1,0,790,3,1,CMpure,3,2,NA,NA,NA,NA,NA,NA
1072,6,6,16,2,1,2,0,0,1,1,0,1435,12,1,CMpure,6,2,NA,NA,NA,NA,NA,NA
1073,6,6,17,1,1,8,7,2,2,1,0,773,3,1,CMpure,6,8,2,1,5,4,3,7
1074,6,6,18,2,1,4,0,0,1,0,1,1592,12,1,CMpure,15,13,10,11,NA,NA,NA,NA
1075,6,6,19,1,1,8,2,7,1,0,0,893,2,1,CMpure,6,2,1,8,7,4,3,5
1076,6,6,20,1,1,2,1,2,1,1,1,709,6,1,CMpure,14,16,NA,NA,NA,NA,NA,NA
1077,6,6,21,1,1,8,3,6,1,1,1,1269,5,1,CMpure,10,12,13,16,11,15,14,9
1078,6,6,22,2,1,8,0,0,2,1,1,783,10,1,CMpure,15,16,9,11,13,10,14,12
1079,6,6,23,1,1,2,1,2,1,1,1,707,5,1,CMpure,13,16,NA,NA,NA,NA,NA,NA
1080,6,6,24,1,1,2,1,2,1,1,1,588,1,1,CMpure,9,10,NA,NA,NA,NA,NA,NA
1081,6,7,1,1,1,4,1,4,1,1,1,863,8,1,CMpure,16,14,11,15,NA,NA,NA,NA
1082,6,7,2,1,1,2,2,1,1,1,1,690,6,1,CMpure,16,14,NA,NA,NA,NA,NA,NA
1083,6,7,3,2,1,8,0,0,2,1,1,914,13,1,CMpure,11,10,14,9,16,15,13,12
1084,6,7,4,2,1,8,0,0,1,1,0,1825,9,1,CMpure,2,5,3,4,6,7,1,8
1085,6,7,5,1,1,2,2,1,1,1,1,997,1,1,CMpure,10,9,NA,NA,NA,NA,NA,NA
1086,6,7,6,2,1,4,0,0,2,1,1,767,9,1,CMpure,16,11,13,15,NA,NA,NA,NA
1087,6,7,7,1,1,4,2,3,2,1,0,1265,3,1,CMpure,8,3,7,6,NA,NA,NA,NA
1088,6,7,8,2,1,8,0,0,1,0,1,1195,16,1,CMpure,9,15,13,11,14,10,16,12
1089,6,7,9,1,1,4,4,1,2,1,0,605,2,1,CMpure,4,3,5,2,NA,NA,NA,NA
1090,6,7,10,2,1,8,0,0,2,1,1,769,10,1,CMpure,16,10,15,13,11,9,12,14
1091,6,7,11,1,1,8,6,3,1,1,1,1318,7,1,CMpure,12,9,16,10,14,15,11,13
1092,6,7,12,2,1,4,0,0,2,1,1,883,12,1,CMpure,14,9,13,10,NA,NA,NA,NA
1093,6,7,13,1,1,2,1,2,1,1,1,540,1,1,CMpure,9,13,NA,NA,NA,NA,NA,NA
1094,6,7,14,1,1,4,2,3,1,1,1,823,8,1,CMpure,14,16,9,13,NA,NA,NA,NA
1095,6,7,15,1,1,8,5,4,1,1,1,1491,3,1,CMpure,10,12,16,9,11,15,13,14
1096,6,7,16,2,1,4,0,0,1,1,0,1409,14,1,CMpure,7,8,2,5,NA,NA,NA,NA
1097,6,7,17,2,1,8,0,0,2,1,1,1517,15,1,CMpure,16,10,12,13,15,14,11,9
1098,6,7,18,1,1,8,5,4,2,1,0,660,5,1,CMpure,2,6,8,4,5,7,3,1
1099,6,7,19,2,1,4,0,0,2,1,1,612,12,1,CMpure,11,13,14,15,NA,NA,NA,NA
1100,6,7,20,2,1,2,0,0,1,1,0,2048,15,1,CMpure,8,3,NA,NA,NA,NA,NA,NA
1101,6,7,21,2,1,2,0,0,1,1,0,770,14,1,CMpure,6,2,NA,NA,NA,NA,NA,NA
1102,6,7,22,2,1,4,0,0,1,1,0,957,11,1,CMpure,1,4,6,8,NA,NA,NA,NA
1103,6,7,23,2,1,4,0,0,2,1,1,1160,10,1,CMpure,12,14,16,15,NA,NA,NA,NA
1104,6,7,24,2,1,4,0,0,1,1,0,787,11,1,CMpure,8,5,3,6,NA,NA,NA,NA
1105,6,8,1,1,1,4,4,1,1,1,1,819,1,1,CMpure,15,10,11,9,NA,NA,NA,NA
1106,6,8,2,2,1,2,0,0,1,1,0,911,11,1,CMpure,4,5,NA,NA,NA,NA,NA,NA
1107,6,8,3,1,1,8,5,4,2,1,0,1447,4,1,CMpure,2,7,5,6,4,3,8,1
1108,6,8,4,2,1,2,0,0,2,1,1,882,11,1,CMpure,9,10,NA,NA,NA,NA,NA,NA
1109,6,8,5,2,1,8,0,0,2,1,1,1266,12,1,CMpure,9,15,12,11,14,16,10,13
1110,6,8,6,2,1,8,0,0,1,1,0,1348,10,1,CMpure,5,4,2,8,7,6,1,3
1111,6,8,7,2,1,8,0,0,2,1,1,1370,16,1,CMpure,11,13,12,14,10,9,15,16
1112,6,8,8,2,1,8,0,0,2,0,0,975,10,1,CMpure,2,4,3,1,7,5,8,6
1113,6,8,9,2,1,8,0,0,1,0,1,972,14,1,CMpure,11,13,10,12,15,9,14,16
1114,6,8,10,1,1,2,2,1,1,1,1,434,2,1,CMpure,15,10,NA,NA,NA,NA,NA,NA
1115,6,8,11,1,1,2,1,2,2,1,0,469,1,1,CMpure,1,6,NA,NA,NA,NA,NA,NA
1116,6,8,12,1,1,2,1,2,2,1,0,470,1,1,CMpure,1,2,NA,NA,NA,NA,NA,NA
1117,6,8,13,1,1,8,7,2,2,1,0,1335,8,1,CMpure,3,4,1,5,7,2,8,6
1118,6,8,14,1,1,2,2,1,1,1,1,502,1,1,CMpure,13,9,NA,NA,NA,NA,NA,NA
1119,6,8,15,2,1,4,0,0,1,1,0,859,16,1,CMpure,8,6,2,7,NA,NA,NA,NA
1120,6,8,16,1,1,2,1,2,2,1,0,629,3,1,CMpure,3,2,NA,NA,NA,NA,NA,NA
1121,6,8,17,2,1,2,0,0,2,1,1,489,12,1,CMpure,13,9,NA,NA,NA,NA,NA,NA
1122,6,8,18,1,1,4,4,1,1,1,1,511,5,1,CMpure,15,11,14,13,NA,NA,NA,NA
1123,6,8,19,2,1,8,0,0,2,1,1,711,13,1,CMpure,14,9,13,10,12,11,15,16
1124,6,8,20,1,1,4,2,3,1,1,1,2764,1,1,CMpure,10,9,15,14,NA,NA,NA,NA
1125,6,8,21,1,1,4,2,3,2,1,0,1239,4,1,CMpure,3,4,1,7,NA,NA,NA,NA
1126,6,8,22,1,1,8,5,4,1,1,1,1434,2,1,CMpure,16,12,11,15,10,14,9,13
1127,6,8,23,1,1,4,3,2,1,1,1,634,7,1,CMpure,9,13,15,16,NA,NA,NA,NA
1128,6,8,24,1,1,8,8,1,2,1,0,428,8,1,CMpure,6,1,5,4,7,3,2,8
1129,6,9,1,1,1,4,1,4,2,1,0,654,8,1,CMpure,8,6,7,1,NA,NA,NA,NA
1130,6,9,2,1,1,2,2,1,1,1,1,432,1,1,CMpure,10,9,NA,NA,NA,NA,NA,NA
1131,6,9,3,2,1,4,0,0,1,1,0,968,14,1,CMpure,6,5,2,4,NA,NA,NA,NA
1132,6,9,4,1,1,8,5,4,1,0,0,997,8,1,CMpure,7,5,3,1,8,2,6,4
1133,6,9,5,1,1,8,6,3,1,1,1,922,5,1,CMpure,14,9,11,15,16,13,10,12
1134,6,9,6,2,1,8,0,0,2,1,1,1106,9,1,CMpure,11,15,13,16,9,12,14,10
1135,6,9,7,2,1,2,0,0,2,1,1,633,12,1,CMpure,12,16,NA,NA,NA,NA,NA,NA
1136,6,9,8,1,1,8,7,2,1,1,1,540,5,1,CMpure,12,16,15,11,14,9,13,10
1137,6,9,9,1,1,2,2,1,2,1,0,387,1,1,CMpure,7,1,NA,NA,NA,NA,NA,NA
1138,6,9,10,1,1,8,7,2,2,1,0,512,3,1,CMpure,8,7,6,4,2,5,3,1
1139,6,9,11,2,1,8,0,0,2,1,1,1120,9,1,CMpure,15,13,11,14,9,16,12,10
1140,6,9,12,1,1,2,1,2,2,1,0,751,2,1,CMpure,2,8,NA,NA,NA,NA,NA,NA
1141,6,9,13,1,1,8,2,7,1,1,1,805,8,1,CMpure,11,16,15,12,10,13,14,9
1142,6,9,14,2,1,4,0,0,1,1,0,695,11,1,CMpure,4,7,5,6,NA,NA,NA,NA
1143,6,9,15,1,1,8,2,7,1,1,1,2071,3,1,CMpure,13,11,15,10,16,9,14,12
1144,6,9,16,2,1,2,0,0,1,1,0,1137,16,1,CMpure,3,5,NA,NA,NA,NA,NA,NA
1145,6,9,17,2,1,2,0,0,1,1,0,616,15,1,CMpure,3,6,NA,NA,NA,NA,NA,NA
1146,6,9,18,2,1,8,0,0,2,0,0,1371,14,1,CMpure,5,3,7,2,6,8,1,4
1147,6,9,19,1,1,8,4,5,1,0,0,1800,1,1,CMpure,8,5,2,1,4,7,3,6
1148,6,9,20,2,1,4,0,0,1,1,0,834,9,1,CMpure,8,7,3,2,NA,NA,NA,NA
1149,6,9,21,1,1,8,3,6,2,1,0,1124,3,1,CMpure,4,1,3,2,7,6,8,5
1150,6,9,22,2,1,2,0,0,2,1,1,1020,9,1,CMpure,9,15,NA,NA,NA,NA,NA,NA
1151,6,9,23,1,1,4,3,2,2,1,0,709,7,1,CMpure,4,1,7,3,NA,NA,NA,NA
1152,6,9,24,2,1,8,0,0,2,1,1,2116,16,1,CMpure,14,9,16,11,10,12,13,15
1153,7,2,1,2,1,8,0,0,1,1,0,808,13,1,CMpure,7,3,5,4,1,2,6,8
1154,7,2,2,1,1,4,1,4,2,1,0,738,1,1,CMpure,1,5,3,6,NA,NA,NA,NA
1155,7,2,3,2,1,2,0,0,1,1,0,537,13,1,CMpure,5,3,NA,NA,NA,NA,NA,NA
1156,7,2,4,1,1,2,1,2,2,1,0,744,1,1,CMpure,1,4,NA,NA,NA,NA,NA,NA
1157,7,2,5,1,1,4,3,2,1,1,1,788,2,1,CMpure,9,16,10,15,NA,NA,NA,NA
1158,7,2,6,2,1,8,0,0,2,1,1,793,11,1,CMpure,15,12,11,16,9,13,14,10
1159,7,2,7,2,1,2,0,0,1,1,0,717,15,1,CMpure,5,2,NA,NA,NA,NA,NA,NA
1160,7,2,8,1,1,8,6,3,1,0,0,725,8,1,CMpure,6,4,3,5,1,8,7,2
1161,7,2,9,1,1,2,1,2,1,1,1,1133,3,1,CMpure,11,16,NA,NA,NA,NA,NA,NA
1162,7,2,10,1,1,2,2,1,2,1,0,803,1,1,CMpure,3,1,NA,NA,NA,NA,NA,NA
1163,7,2,11,2,1,4,0,0,2,1,1,829,11,1,CMpure,14,15,10,11,NA,NA,NA,NA
1164,7,2,12,1,1,2,2,1,2,1,0,768,8,1,CMpure,3,8,NA,NA,NA,NA,NA,NA
1165,7,2,13,1,1,4,3,2,1,1,1,891,7,1,CMpure,16,11,15,10,NA,NA,NA,NA
1166,7,2,14,2,1,8,0,0,1,1,0,684,15,1,CMpure,7,1,6,5,4,2,3,8
1167,7,2,15,2,1,8,0,0,1,1,0,853,16,1,CMpure,2,3,8,6,5,7,4,1
1168,7,2,16,1,1,2,1,2,2,1,0,1287,3,1,CMpure,3,5,NA,NA,NA,NA,NA,NA
1169,7,2,17,2,1,8,0,0,2,1,1,792,14,1,CMpure,12,11,14,10,9,16,15,13
1170,7,2,18,2,1,2,0,0,2,1,1,1037,13,1,CMpure,11,14,NA,NA,NA,NA,NA,NA
1171,7,2,19,1,1,4,4,1,1,0,0,3080,7,1,CMpure,4,1,5,7,NA,NA,NA,NA
1172,7,2,20,2,1,8,0,0,1,1,0,817,10,1,CMpure,5,3,8,4,7,2,1,6
1173,7,2,21,2,1,2,0,0,1,1,0,692,14,1,CMpure,2,3,NA,NA,NA,NA,NA,NA
1174,7,2,22,1,1,2,1,2,2,0,1,845,6,1,CMpure,14,10,NA,NA,NA,NA,NA,NA
1175,7,2,23,2,1,8,0,0,2,1,1,1408,15,1,CMpure,9,15,12,11,16,10,14,13
1176,7,2,24,2,1,4,0,0,1,1,0,818,15,1,CMpure,7,8,2,3,NA,NA,NA,NA
1177,7,3,1,2,1,2,0,0,2,0,0,2852,12,1,CMpure,6,1,NA,NA,NA,NA,NA,NA
1178,7,3,2,1,1,2,1,2,1,0,0,757,5,1,CMpure,5,3,NA,NA,NA,NA,NA,NA
1179,7,3,3,2,1,2,0,0,1,1,0,812,11,1,CMpure,7,6,NA,NA,NA,NA,NA,NA
1180,7,3,4,2,1,4,0,0,2,1,1,965,11,1,CMpure,9,15,11,12,NA,NA,NA,NA
1181,7,3,5,1,1,8,1,8,1,1,1,1043,7,1,CMpure,15,9,10,13,11,16,14,12
1182,7,3,6,2,1,2,0,0,1,1,0,1022,9,1,CMpure,8,6,NA,NA,NA,NA,NA,NA
1183,7,3,7,1,1,2,2,1,2,1,0,745,8,1,CMpure,3,8,NA,NA,NA,NA,NA,NA
1184,7,3,8,2,1,8,0,0,2,1,1,880,13,1,CMpure,15,13,10,16,14,11,12,9
1185,7,3,9,1,1,8,2,7,2,0,1,1121,1,1,CMpure,10,9,15,14,13,11,12,16
1186,7,3,10,2,1,4,0,0,1,1,0,814,13,1,CMpure,8,4,6,1,NA,NA,NA,NA
1187,7,3,11,1,1,4,3,2,2,1,0,823,6,1,CMpure,5,2,6,8,NA,NA,NA,NA
1188,7,3,12,2,1,2,0,0,2,1,1,810,13,1,CMpure,9,10,NA,NA,NA,NA,NA,NA
1189,7,3,13,2,1,2,0,0,1,1,0,910,11,1,CMpure,2,5,NA,NA,NA,NA,NA,NA
1190,7,3,14,1,1,2,1,2,1,0,0,943,5,1,CMpure,5,2,NA,NA,NA,NA,NA,NA
1191,7,3,15,1,1,8,3,6,1,0,0,910,3,1,CMpure,2,8,3,5,4,7,1,6
1192,7,3,16,2,1,8,0,0,2,1,1,1022,9,1,CMpure,10,13,9,15,14,16,12,11
1193,7,3,17,1,1,8,1,8,2,0,1,762,5,1,CMpure,13,9,16,14,15,12,11,10
1194,7,3,18,2,1,2,0,0,2,1,1,1136,15,1,CMpure,15,16,NA,NA,NA,NA,NA,NA
1195,7,3,19,1,1,2,1,2,1,1,1,903,5,1,CMpure,13,14,NA,NA,NA,NA,NA,NA
1196,7,3,20,1,1,8,2,7,1,0,0,791,7,1,CMpure,6,7,5,8,1,4,2,3
1197,7,3,21,2,1,8,0,0,2,1,1,828,15,1,CMpure,12,10,15,11,14,16,9,13
1198,7,3,22,1,1,2,1,2,2,1,0,1023,3,1,CMpure,3,8,NA,NA,NA,NA,NA,NA
1199,7,3,23,2,1,2,0,0,1,1,0,683,10,1,CMpure,4,1,NA,NA,NA,NA,NA,NA
1200,7,3,24,2,1,8,0,0,2,1,1,900,14,1,CMpure,13,16,9,15,11,12,10,14
1201,7,4,1,1,1,4,3,2,1,1,1,1128,5,1,CMpure,15,12,13,9,NA,NA,NA,NA
1202,7,4,2,1,1,8,1,8,1,1,1,1248,2,1,CMpure,10,15,12,13,14,16,9,11
1203,7,4,3,1,1,8,5,4,2,1,0,1186,2,1,CMpure,4,6,5,3,2,7,1,8
1204,7,4,4,2,1,2,0,0,1,1,0,615,10,1,CMpure,5,4,NA,NA,NA,NA,NA,NA
1205,7,4,5,2,1,4,0,0,1,0,1,1240,12,1,CMpure,11,14,12,15,NA,NA,NA,NA
1206,7,4,6,2,1,4,0,0,1,1,0,1265,12,1,CMpure,7,2,6,8,NA,NA,NA,NA
1207,7,4,7,2,1,8,0,0,2,1,1,1026,13,1,CMpure,12,16,14,10,13,11,15,9
1208,7,4,8,1,1,8,8,1,1,1,1,830,3,1,CMpure,16,13,10,12,15,9,14,11
1209,7,4,9,1,1,2,1,2,1,0,0,689,7,1,CMpure,7,8,NA,NA,NA,NA,NA,NA
1210,7,4,10,1,1,2,2,1,1,1,1,793,7,1,CMpure,9,15,NA,NA,NA,NA,NA,NA
1211,7,4,11,1,1,8,1,8,1,1,1,830,7,1,CMpure,15,12,9,10,11,16,13,14
1212,7,4,12,2,1,4,0,0,2,0,0,822,14,1,CMpure,7,5,3,4,NA,NA,NA,NA
1213,7,4,13,1,1,2,1,2,1,1,1,634,3,1,CMpure,11,9,NA,NA,NA,NA,NA,NA
1214,7,4,14,1,1,8,7,2,1,1,1,885,3,1,CMpure,13,14,12,10,16,15,11,9
1215,7,4,15,1,1,2,2,1,2,1,0,758,8,1,CMpure,5,8,NA,NA,NA,NA,NA,NA
1216,7,4,16,1,1,8,3,6,1,1,1,940,5,1,CMpure,14,12,13,11,10,16,15,9
1217,7,4,17,2,1,8,0,0,2,0,0,1147,10,1,CMpure,2,6,1,5,8,4,7,3
1218,7,4,18,2,1,2,0,0,2,1,1,737,15,1,CMpure,9,13,NA,NA,NA,NA,NA,NA
1219,7,4,19,1,1,8,7,2,1,1,1,744,6,1,CMpure,16,11,12,9,10,13,14,15
1220,7,4,20,1,1,2,1,2,2,1,0,815,1,1,CMpure,1,6,NA,NA,NA,NA,NA,NA
1221,7,4,21,1,1,2,2,1,2,1,0,802,8,1,CMpure,2,8,NA,NA,NA,NA,NA,NA
1222,7,4,22,1,1,8,3,6,2,1,0,838,8,1,CMpure,6,1,8,7,4,3,5,2
1223,7,4,23,1,1,2,1,2,1,1,1,457,8,1,CMpure,16,13,NA,NA,NA,NA,NA,NA
1224,7,4,24,1,1,8,5,4,2,1,0,668,6,1,CMpure,5,2,1,7,6,3,8,4
1225,7,5,1,2,1,2,0,0,1,1,0,1038,9,1,CMpure,6,2,NA,NA,NA,NA,NA,NA
1226,7,5,2,1,1,8,5,4,2,1,0,856,8,1,CMpure,3,2,6,5,8,4,1,7
1227,7,5,3,1,1,2,1,2,1,1,1,523,8,1,CMpure,16,9,NA,NA,NA,NA,NA,NA
1228,7,5,4,1,1,8,4,5,1,1,1,778,6,1,CMpure,10,16,15,14,9,12,13,11
1229,7,5,5,1,1,2,1,2,1,1,1,608,1,1,CMpure,9,10,NA,NA,NA,NA,NA,NA
1230,7,5,6,2,1,4,0,0,2,1,1,657,13,1,CMpure,12,10,14,9,NA,NA,NA,NA
1231,7,5,7,2,1,2,0,0,2,1,1,715,10,1,CMpure,14,11,NA,NA,NA,NA,NA,NA
1232,7,5,8,2,1,4,0,0,1,1,0,904,14,1,CMpure,5,1,6,4,NA,NA,NA,NA
1233,7,5,9,2,1,8,0,0,2,1,1,936,12,1,CMpure,12,15,11,13,9,14,16,10
1234,7,5,10,1,1,8,1,8,1,1,1,760,8,1,CMpure,16,15,9,10,12,14,11,13
1235,7,5,11,1,1,2,2,1,2,1,0,814,6,1,CMpure,7,6,NA,NA,NA,NA,NA,NA
1236,7,5,12,1,1,4,4,1,2,1,0,919,4,1,CMpure,2,8,3,4,NA,NA,NA,NA
1237,7,5,13,1,1,8,6,3,2,1,0,678,6,1,CMpure,7,8,3,1,5,6,2,4
1238,7,5,14,1,1,8,1,8,1,1,1,624,8,1,CMpure,16,11,12,10,13,15,14,9
1239,7,5,15,2,1,8,0,0,2,1,1,539,11,1,CMpure,13,16,10,9,15,11,14,12
1240,7,5,16,2,1,4,0,0,1,1,0,864,16,1,CMpure,3,1,6,5,NA,NA,NA,NA
1241,7,5,17,2,1,4,0,0,1,1,0,630,11,1,CMpure,5,4,3,6,NA,NA,NA,NA
1242,7,5,18,1,1,4,2,3,2,1,0,855,3,1,CMpure,4,3,6,2,NA,NA,NA,NA
1243,7,5,19,2,1,4,0,0,1,1,0,638,13,1,CMpure,8,2,7,3,NA,NA,NA,NA
1244,7,5,20,2,1,2,0,0,1,1,0,633,12,1,CMpure,2,8,NA,NA,NA,NA,NA,NA
1245,7,5,21,2,1,8,0,0,2,1,1,772,9,1,CMpure,9,11,15,16,14,10,12,13
1246,7,5,22,1,1,2,2,1,1,1,1,745,5,1,CMpure,12,13,NA,NA,NA,NA,NA,NA
1247,7,5,23,1,1,2,1,2,2,1,0,624,1,1,CMpure,1,5,NA,NA,NA,NA,NA,NA
1248,7,5,24,2,1,2,0,0,1,1,0,652,15,1,CMpure,7,8,NA,NA,NA,NA,NA,NA
1249,7,6,1,1,1,2,2,1,1,1,1,696,5,1,CMpure,10,13,NA,NA,NA,NA,NA,NA
1250,7,6,2,2,1,4,0,0,1,1,0,758,11,1,CMpure,2,8,6,3,NA,NA,NA,NA
1251,7,6,3,2,1,4,0,0,2,1,1,785,13,1,CMpure,10,13,16,12,NA,NA,NA,NA
1252,7,6,4,1,1,2,2,1,2,0,1,886,5,1,CMpure,10,13,NA,NA,NA,NA,NA,NA
1253,7,6,5,2,1,4,0,0,1,1,0,748,12,1,CMpure,3,8,4,7,NA,NA,NA,NA
1254,7,6,6,1,1,2,1,2,2,1,0,1202,3,1,CMpure,3,4,NA,NA,NA,NA,NA,NA
1255,7,6,7,1,1,8,6,3,2,1,0,1063,7,1,CMpure,3,4,5,2,8,7,1,6
1256,7,6,8,2,1,8,0,0,1,0,1,913,9,1,CMpure,9,13,15,16,14,12,11,10
1257,7,6,9,2,1,8,0,0,2,1,1,673,13,1,CMpure,10,13,14,11,9,15,16,12
1258,7,6,10,2,1,8,0,0,2,1,1,970,12,1,CMpure,13,15,12,11,14,16,9,10
1259,7,6,11,1,1,8,8,1,2,1,0,840,3,1,CMpure,8,1,4,7,2,6,5,3
1260,7,6,12,1,1,4,2,3,1,1,1,736,1,1,CMpure,14,9,12,13,NA,NA,NA,NA
1261,7,6,13,2,1,8,0,0,1,1,0,727,16,1,CMpure,6,5,8,2,3,4,1,7
1262,7,6,14,1,1,4,1,4,2,1,0,980,1,1,CMpure,1,8,4,5,NA,NA,NA,NA
1263,7,6,15,1,1,8,5,4,1,1,1,945,2,1,CMpure,16,11,9,14,10,12,15,13
1264,7,6,16,1,1,4,1,4,1,1,1,597,1,1,CMpure,9,12,10,11,NA,NA,NA,NA
1265,7,6,17,2,1,2,0,0,2,1,1,673,12,1,CMpure,10,12,NA,NA,NA,NA,NA,NA
1266,7,6,18,2,1,8,0,0,1,1,0,1019,13,1,CMpure,5,7,8,3,1,4,2,6
1267,7,6,19,2,1,2,0,0,2,1,1,566,12,1,CMpure,10,11,NA,NA,NA,NA,NA,NA
1268,7,6,20,2,1,4,0,0,1,1,0,617,10,1,CMpure,7,1,4,6,NA,NA,NA,NA
1269,7,6,21,2,1,8,0,0,1,1,0,773,9,1,CMpure,5,1,8,3,2,7,4,6
1270,7,6,22,2,1,4,0,0,2,1,1,720,14,1,CMpure,16,10,12,13,NA,NA,NA,NA
1271,7,6,23,2,1,4,0,0,2,1,1,797,15,1,CMpure,12,11,14,15,NA,NA,NA,NA
1272,7,6,24,1,1,8,3,6,2,1,0,737,6,1,CMpure,3,8,6,5,7,2,1,4
1273,7,7,1,2,1,8,0,0,1,1,0,1595,15,1,CMpure,2,3,4,5,1,8,6,7
1274,7,7,2,2,1,2,0,0,1,1,0,751,11,1,CMpure,2,5,NA,NA,NA,NA,NA,NA
1275,7,7,3,2,1,8,0,0,1,1,0,678,16,1,CMpure,2,1,3,4,7,8,5,6
1276,7,7,4,1,1,4,4,1,1,1,1,868,1,1,CMpure,11,16,10,9,NA,NA,NA,NA
1277,7,7,5,1,1,2,1,2,2,1,0,886,1,1,CMpure,1,5,NA,NA,NA,NA,NA,NA
1278,7,7,6,2,1,8,0,0,1,1,0,663,11,1,CMpure,2,8,7,1,4,3,5,6
1279,7,7,7,1,1,2,1,2,1,1,1,561,5,1,CMpure,13,11,NA,NA,NA,NA,NA,NA
1280,7,7,8,2,1,4,0,0,2,1,1,788,15,1,CMpure,12,13,15,14,NA,NA,NA,NA
1281,7,7,9,1,1,4,3,2,2,1,0,846,7,1,CMpure,3,1,7,6,NA,NA,NA,NA
1282,7,7,10,2,1,4,0,0,1,1,0,806,16,1,CMpure,5,8,4,7,NA,NA,NA,NA
1283,7,7,11,2,1,2,0,0,1,1,0,634,9,1,CMpure,2,8,NA,NA,NA,NA,NA,NA
1284,7,7,12,2,1,8,0,0,1,1,0,1285,9,1,CMpure,1,7,8,4,6,5,2,3
1285,7,7,13,2,1,8,0,0,2,1,1,1254,12,1,CMpure,11,10,13,9,12,15,14,16
1286,7,7,14,2,1,4,0,0,2,1,1,1245,9,1,CMpure,16,12,13,15,NA,NA,NA,NA
1287,7,7,15,2,1,2,0,0,1,1,0,608,15,1,CMpure,6,8,NA,NA,NA,NA,NA,NA
1288,7,7,16,2,1,2,0,0,2,1,1,733,16,1,CMpure,12,13,NA,NA,NA,NA,NA,NA
1289,7,7,17,1,1,4,1,4,2,1,0,1113,1,1,CMpure,1,4,6,2,NA,NA,NA,NA
1290,7,7,18,1,1,8,7,2,2,1,0,1025,4,1,CMpure,1,8,3,7,5,6,4,2
1291,7,7,19,1,1,2,2,1,1,1,1,780,7,1,CMpure,10,15,NA,NA,NA,NA,NA,NA
1292,7,7,20,2,1,2,0,0,2,1,1,593,14,1,CMpure,14,12,NA,NA,NA,NA,NA,NA
1293,7,7,21,1,1,2,1,2,2,1,0,1022,7,1,CMpure,7,5,NA,NA,NA,NA,NA,NA
1294,7,7,22,2,1,8,0,0,1,1,0,666,13,1,CMpure,2,5,7,4,3,8,1,6
1295,7,7,23,1,1,4,3,2,2,1,0,905,5,1,CMpure,3,1,5,8,NA,NA,NA,NA
1296,7,7,24,2,1,4,0,0,1,1,0,494,9,1,CMpure,7,6,3,1,NA,NA,NA,NA
1297,7,8,1,2,1,2,0,0,2,1,1,741,15,1,CMpure,10,11,NA,NA,NA,NA,NA,NA
1298,7,8,2,1,1,4,1,4,2,1,0,1041,3,1,CMpure,3,6,8,1,NA,NA,NA,NA
1299,7,8,3,1,1,8,3,6,1,1,1,924,1,1,CMpure,14,12,9,11,16,10,15,13
1300,7,8,4,2,1,8,0,0,1,1,0,716,10,1,CMpure,5,1,7,3,8,6,4,2
1301,7,8,5,2,1,8,0,0,1,1,0,579,15,1,CMpure,3,6,4,2,1,8,5,7
1302,7,8,6,1,1,2,2,1,1,1,1,800,3,1,CMpure,13,11,NA,NA,NA,NA,NA,NA
1303,7,8,7,1,1,8,2,7,2,1,0,741,8,1,CMpure,7,8,4,5,1,6,2,3
1304,7,8,8,1,1,8,2,7,2,1,0,668,3,1,CMpure,7,3,5,4,8,1,2,6
1305,7,8,9,2,1,4,0,0,1,1,0,571,9,1,CMpure,4,8,6,2,NA,NA,NA,NA
1306,7,8,10,2,1,8,0,0,1,1,0,664,14,1,CMpure,7,6,1,4,3,2,8,5
1307,7,8,11,2,1,8,0,0,1,1,0,658,16,1,CMpure,5,6,4,1,8,2,3,7
1308,7,8,12,2,1,4,0,0,2,1,1,626,9,1,CMpure,14,16,12,9,NA,NA,NA,NA
1309,7,8,13,2,1,8,0,0,1,1,0,477,11,1,CMpure,2,4,7,1,6,5,8,3
1310,7,8,14,1,1,2,1,2,1,1,1,671,8,1,CMpure,16,11,NA,NA,NA,NA,NA,NA
1311,7,8,15,1,1,4,3,2,1,1,1,605,8,1,CMpure,13,11,16,15,NA,NA,NA,NA
1312,7,8,16,1,1,4,3,2,2,0,1,863,4,1,CMpure,15,16,12,10,NA,NA,NA,NA
1313,7,8,17,2,1,4,0,0,2,1,1,630,13,1,CMpure,14,9,16,15,NA,NA,NA,NA
1314,7,8,18,1,1,4,1,4,1,1,1,1286,8,1,CMpure,16,15,10,9,NA,NA,NA,NA
1315,7,8,19,1,1,2,1,2,2,1,0,919,4,1,CMpure,4,8,NA,NA,NA,NA,NA,NA
1316,7,8,20,1,1,8,7,2,1,1,1,887,2,1,CMpure,14,12,15,13,16,11,10,9
1317,7,8,21,2,1,8,0,0,2,1,1,808,12,1,CMpure,10,11,12,15,9,14,16,13
1318,7,8,22,2,1,4,0,0,1,1,0,641,11,1,CMpure,2,8,4,5,NA,NA,NA,NA
1319,7,8,23,1,1,8,1,8,2,1,0,828,8,1,CMpure,8,5,3,1,2,6,7,4
1320,7,8,24,2,1,2,0,0,2,1,1,975,10,1,CMpure,14,10,NA,NA,NA,NA,NA,NA
1321,7,9,1,1,1,8,7,2,2,1,0,727,3,1,CMpure,6,7,8,5,1,4,3,2
1322,7,9,2,2,1,2,0,0,2,1,1,623,14,1,CMpure,9,11,NA,NA,NA,NA,NA,NA
1323,7,9,3,1,1,4,3,2,2,1,0,688,6,1,CMpure,5,1,6,3,NA,NA,NA,NA
1324,7,9,4,1,1,4,1,4,1,1,1,1102,1,1,CMpure,9,15,12,10,NA,NA,NA,NA
1325,7,9,5,1,1,8,7,2,1,1,1,678,7,1,CMpure,14,16,13,12,10,11,15,9
1326,7,9,6,1,1,8,3,6,1,0,0,1200,2,1,CMpure,3,7,2,8,1,5,6,4
1327,7,9,7,1,1,8,8,1,2,1,0,916,1,1,CMpure,4,3,8,6,7,5,2,1
1328,7,9,8,2,1,4,0,0,2,1,1,633,15,1,CMpure,11,13,10,15,NA,NA,NA,NA
1329,7,9,9,2,1,2,0,0,2,1,1,516,14,1,CMpure,10,11,NA,NA,NA,NA,NA,NA
1330,7,9,10,1,1,2,2,1,2,1,0,756,8,1,CMpure,1,8,NA,NA,NA,NA,NA,NA
1331,7,9,11,2,1,2,0,0,1,1,0,666,13,1,CMpure,1,4,NA,NA,NA,NA,NA,NA
1332,7,9,12,2,1,2,0,0,1,1,0,1347,12,1,CMpure,5,7,NA,NA,NA,NA,NA,NA
1333,7,9,13,2,1,2,0,0,2,1,1,625,14,1,CMpure,12,11,NA,NA,NA,NA,NA,NA
1334,7,9,14,1,1,8,7,2,2,1,0,669,6,1,CMpure,3,4,5,8,2,1,6,7
1335,7,9,15,1,1,2,1,2,2,1,0,630,6,1,CMpure,6,3,NA,NA,NA,NA,NA,NA
1336,7,9,16,1,1,8,8,1,1,1,1,705,7,1,CMpure,9,16,13,10,14,11,12,15
1337,7,9,17,1,1,4,4,1,1,1,1,623,6,1,CMpure,12,9,13,14,NA,NA,NA,NA
1338,7,9,18,1,1,4,2,3,2,1,0,704,8,1,CMpure,7,8,3,2,NA,NA,NA,NA
1339,7,9,19,1,1,2,2,1,2,1,0,616,8,1,CMpure,6,8,NA,NA,NA,NA,NA,NA
1340,7,9,20,1,1,8,7,2,1,1,1,659,5,1,CMpure,10,16,11,15,9,12,13,14
1341,7,9,21,2,1,8,0,0,2,1,1,1694,10,1,CMpure,12,9,11,14,15,16,10,13
1342,7,9,22,1,1,4,1,4,2,1,0,708,6,1,CMpure,6,2,8,1,NA,NA,NA,NA
1343,7,9,23,2,1,8,0,0,1,1,0,844,10,1,CMpure,5,3,4,7,2,6,8,1
1344,7,9,24,1,1,4,2,3,2,1,0,837,4,1,CMpure,3,4,1,7,NA,NA,NA,NA
1345,8,2,1,2,1,8,0,0,1,1,0,599,10,1,CMpure,2,5,1,7,4,6,8,3
1346,8,2,2,2,1,2,0,0,1,1,0,643,15,1,CMpure,1,8,NA,NA,NA,NA,NA,NA
1347,8,2,3,2,1,2,0,0,2,1,1,701,15,1,CMpure,16,15,NA,NA,NA,NA,NA,NA
1348,8,2,4,2,1,2,0,0,2,1,1,581,15,1,CMpure,11,16,NA,NA,NA,NA,NA,NA
1349,8,2,5,1,1,2,1,2,1,1,1,769,2,1,CMpure,10,13,NA,NA,NA,NA,NA,NA
1350,8,2,6,2,1,4,0,0,2,1,1,652,11,1,CMpure,14,15,13,11,NA,NA,NA,NA
1351,8,2,7,1,1,4,3,2,1,1,1,635,6,1,CMpure,13,11,14,9,NA,NA,NA,NA
1352,8,2,8,1,1,8,7,2,1,1,1,645,4,1,CMpure,10,13,9,11,16,14,12,15
1353,8,2,9,2,1,4,0,0,2,1,1,500,13,1,CMpure,15,9,10,13,NA,NA,NA,NA
1354,8,2,10,1,1,8,1,8,1,1,1,980,7,1,CMpure,15,14,9,13,16,10,12,11
1355,8,2,11,2,1,8,0,0,1,1,0,960,16,1,CMpure,2,3,8,6,5,7,4,1
1356,8,2,12,1,1,2,1,2,1,1,1,621,7,1,CMpure,15,10,NA,NA,NA,NA,NA,NA
1357,8,2,13,2,1,4,0,0,2,1,1,878,12,1,CMpure,13,14,12,10,NA,NA,NA,NA
1358,8,2,14,1,1,4,3,2,1,1,1,579,7,1,CMpure,10,9,15,16,NA,NA,NA,NA
1359,8,2,15,2,1,2,0,0,2,1,1,608,15,1,CMpure,9,16,NA,NA,NA,NA,NA,NA
1360,8,2,16,1,1,8,1,8,2,1,0,540,6,1,CMpure,6,1,2,7,8,4,3,5
1361,8,2,17,1,1,2,2,1,1,1,1,570,1,1,CMpure,16,9,NA,NA,NA,NA,NA,NA
1362,8,2,18,2,1,4,0,0,2,1,1,557,13,1,CMpure,14,12,16,9,NA,NA,NA,NA
1363,8,2,19,1,1,4,2,3,2,1,0,704,1,1,CMpure,2,1,8,7,NA,NA,NA,NA
1364,8,2,20,2,1,4,0,0,2,1,1,685,9,1,CMpure,15,16,13,9,NA,NA,NA,NA
1365,8,2,21,1,1,2,1,2,2,1,0,581,7,1,CMpure,7,2,NA,NA,NA,NA,NA,NA
1366,8,2,22,2,1,8,0,0,1,1,0,674,14,1,CMpure,2,5,6,1,4,3,7,8
1367,8,2,23,1,1,4,2,3,2,1,0,544,2,1,CMpure,6,2,8,3,NA,NA,NA,NA
1368,8,2,24,1,1,2,2,1,2,1,0,398,1,1,CMpure,7,1,NA,NA,NA,NA,NA,NA
1369,8,3,1,1,1,4,4,1,2,1,0,607,5,1,CMpure,2,6,8,5,NA,NA,NA,NA
1370,8,3,2,2,1,8,0,0,2,1,1,491,13,1,CMpure,16,9,10,13,11,15,14,12
1371,8,3,3,1,1,8,2,7,2,1,0,859,3,1,CMpure,5,3,1,8,7,6,2,4
1372,8,3,4,1,1,2,1,2,1,1,1,429,7,1,CMpure,15,12,NA,NA,NA,NA,NA,NA
1373,8,3,5,1,1,2,1,2,2,1,0,575,8,1,CMpure,8,5,NA,NA,NA,NA,NA,NA
1374,8,3,6,2,1,8,0,0,2,1,1,1788,14,1,CMpure,15,9,11,12,16,13,14,10
1375,8,3,7,2,1,2,0,0,1,1,0,569,14,1,CMpure,7,3,NA,NA,NA,NA,NA,NA
1376,8,3,8,2,1,8,0,0,2,1,1,582,9,1,CMpure,12,14,9,16,11,15,13,10
1377,8,3,9,1,1,2,1,2,1,1,1,514,5,1,CMpure,13,14,NA,NA,NA,NA,NA,NA
1378,8,3,10,2,1,4,0,0,1,1,0,551,14,1,CMpure,6,2,3,1,NA,NA,NA,NA
1379,8,3,11,1,1,4,2,3,2,1,0,570,5,1,CMpure,3,5,7,8,NA,NA,NA,NA
1380,8,3,12,2,1,4,0,0,2,1,1,540,11,1,CMpure,14,11,9,13,NA,NA,NA,NA
1381,8,3,13,1,1,2,2,1,2,1,0,411,1,1,CMpure,5,1,NA,NA,NA,NA,NA,NA
1382,8,3,14,1,1,2,2,1,1,1,1,446,6,1,CMpure,12,14,NA,NA,NA,NA,NA,NA
1383,8,3,15,2,1,8,0,0,1,1,0,623,11,1,CMpure,8,6,5,3,7,1,4,2
1384,8,3,16,1,1,4,2,3,1,1,1,576,5,1,CMpure,10,13,12,9,NA,NA,NA,NA
1385,8,3,17,2,1,2,0,0,1,1,0,2669,14,1,CMpure,7,2,NA,NA,NA,NA,NA,NA
1386,8,3,18,1,1,2,2,1,2,1,0,485,5,1,CMpure,7,5,NA,NA,NA,NA,NA,NA
1387,8,3,19,2,1,8,0,0,2,1,1,726,12,1,CMpure,15,16,13,10,11,14,9,12
1388,8,3,20,2,1,8,0,0,1,1,0,573,16,1,CMpure,4,7,2,5,3,6,1,8
1389,8,3,21,2,1,2,0,0,2,1,1,2394,11,1,CMpure,11,13,NA,NA,NA,NA,NA,NA
1390,8,3,22,1,1,8,7,2,2,1,0,750,4,1,CMpure,1,2,5,3,7,6,4,8
1391,8,3,23,2,1,4,0,0,2,1,1,617,14,1,CMpure,16,15,12,13,NA,NA,NA,NA
1392,8,3,24,2,1,2,0,0,2,1,1,1828,11,1,CMpure,10,15,NA,NA,NA,NA,NA,NA
1393,8,4,1,2,1,8,0,0,1,1,0,514,16,1,CMpure,6,1,2,8,4,7,5,3
1394,8,4,2,1,1,2,2,1,1,1,1,449,6,1,CMpure,15,14,NA,NA,NA,NA,NA,NA
1395,8,4,3,2,1,4,0,0,1,1,0,552,11,1,CMpure,2,8,7,3,NA,NA,NA,NA
1396,8,4,4,1,1,2,2,1,2,1,0,406,3,1,CMpure,5,3,NA,NA,NA,NA,NA,NA
1397,8,4,5,1,1,2,2,1,2,1,0,474,2,1,CMpure,8,2,NA,NA,NA,NA,NA,NA
1398,8,4,6,1,1,8,4,5,2,1,0,619,3,1,CMpure,4,1,5,3,2,7,6,8
1399,8,4,7,1,1,8,1,8,2,1,0,566,7,1,CMpure,7,4,2,1,8,5,3,6
1400,8,4,8,1,1,8,7,2,2,1,0,451,7,1,CMpure,4,2,8,1,6,3,7,5
1401,8,4,9,1,1,2,2,1,2,1,0,533,8,1,CMpure,5,8,NA,NA,NA,NA,NA,NA
1402,8,4,10,2,1,2,0,0,1,1,0,563,15,1,CMpure,4,6,NA,NA,NA,NA,NA,NA
1403,8,4,11,1,1,8,4,5,1,1,1,528,3,1,CMpure,10,12,13,11,15,16,9,14
1404,8,4,12,2,1,2,0,0,1,1,0,543,14,1,CMpure,4,8,NA,NA,NA,NA,NA,NA
1405,8,4,13,1,1,8,5,4,1,1,1,685,5,1,CMpure,12,15,16,14,13,10,11,9
1406,8,4,14,2,1,8,0,0,1,1,0,645,9,1,CMpure,3,6,8,7,4,1,5,2
1407,8,4,15,1,1,8,7,2,1,1,1,478,8,1,CMpure,10,9,11,12,13,15,16,14
1408,8,4,16,1,1,2,1,2,1,1,1,719,4,1,CMpure,12,10,NA,NA,NA,NA,NA,NA
1409,8,4,17,2,1,2,0,0,1,1,0,534,10,1,CMpure,5,4,NA,NA,NA,NA,NA,NA
1410,8,4,18,1,1,2,2,1,1,1,1,405,1,1,CMpure,15,9,NA,NA,NA,NA,NA,NA
1411,8,4,19,2,1,8,0,0,2,1,1,568,14,1,CMpure,11,13,16,14,9,15,12,10
1412,8,4,20,2,1,4,0,0,2,1,1,523,13,1,CMpure,11,14,16,10,NA,NA,NA,NA
1413,8,4,21,2,1,8,0,0,2,1,1,842,15,1,CMpure,16,13,14,11,9,15,12,10
1414,8,4,22,2,1,2,0,0,1,1,0,508,15,1,CMpure,3,2,NA,NA,NA,NA,NA,NA
1415,8,4,23,1,1,8,6,3,2,1,0,508,5,1,CMpure,3,2,8,4,1,5,7,6
1416,8,4,24,2,1,4,0,0,2,1,1,785,13,1,CMpure,12,15,13,10,NA,NA,NA,NA
1417,8,5,1,2,1,2,0,0,1,1,0,523,14,1,CMpure,2,4,NA,NA,NA,NA,NA,NA
1418,8,5,2,1,1,4,3,2,2,1,0,415,4,1,CMpure,8,2,4,1,NA,NA,NA,NA
1419,8,5,3,1,1,8,5,4,1,1,1,418,1,1,CMpure,10,11,12,13,9,15,16,14
1420,8,5,4,2,1,2,0,0,2,1,1,517,9,1,CMpure,15,11,NA,NA,NA,NA,NA,NA
1421,8,5,5,1,1,4,2,3,2,1,0,602,1,1,CMpure,5,1,7,2,NA,NA,NA,NA
1422,8,5,6,2,1,2,0,0,2,1,1,486,13,1,CMpure,16,15,NA,NA,NA,NA,NA,NA
1423,8,5,7,1,1,8,3,6,2,1,0,454,2,1,CMpure,5,1,2,7,3,8,4,6
1424,8,5,8,1,1,4,3,2,2,1,0,525,7,1,CMpure,1,6,7,8,NA,NA,NA,NA
1425,8,5,9,1,1,4,2,3,2,1,0,402,7,1,CMpure,4,7,1,8,NA,NA,NA,NA
1426,8,5,10,2,1,8,0,0,2,1,1,564,9,1,CMpure,14,11,13,12,10,16,15,9
1427,8,5,11,2,1,8,0,0,2,1,1,657,15,1,CMpure,15,14,10,16,9,13,12,11
1428,8,5,12,2,1,4,0,0,2,1,1,512,9,1,CMpure,14,11,15,13,NA,NA,NA,NA
1429,8,5,13,2,1,2,0,0,2,1,1,527,14,1,CMpure,10,9,NA,NA,NA,NA,NA,NA
1430,8,5,14,2,1,8,0,0,2,1,1,877,11,1,CMpure,16,15,10,14,11,9,13,12
1431,8,5,15,2,1,2,0,0,2,1,1,446,13,1,CMpure,13,10,NA,NA,NA,NA,NA,NA
1432,8,5,16,1,1,2,2,1,2,1,0,352,2,1,CMpure,7,2,NA,NA,NA,NA,NA,NA
1433,8,5,17,2,1,8,0,0,2,1,1,469,10,1,CMpure,12,16,9,11,15,14,13,10
1434,8,5,18,1,1,4,3,2,1,1,1,556,4,1,CMpure,9,11,12,14,NA,NA,NA,NA
1435,8,5,19,2,1,4,0,0,1,1,0,495,14,1,CMpure,5,1,4,8,NA,NA,NA,NA
1436,8,5,20,1,1,2,2,1,2,1,0,351,1,1,CMpure,8,1,NA,NA,NA,NA,NA,NA
1437,8,5,21,2,1,8,0,0,1,1,0,468,13,1,CMpure,1,5,2,8,7,4,6,3
1438,8,5,22,1,1,4,4,1,2,1,0,410,2,1,CMpure,7,5,1,2,NA,NA,NA,NA
1439,8,5,23,2,1,4,0,0,2,1,1,579,12,1,CMpure,12,15,9,16,NA,NA,NA,NA
1440,8,5,24,1,1,2,1,2,2,1,0,495,8,1,CMpure,8,3,NA,NA,NA,NA,NA,NA
1441,8,6,1,1,1,2,1,2,1,1,1,386,3,1,CMpure,11,12,NA,NA,NA,NA,NA,NA
1442,8,6,2,1,1,4,2,3,1,1,1,683,2,1,CMpure,13,10,16,11,NA,NA,NA,NA
1443,8,6,3,2,1,8,0,0,2,1,1,436,14,1,CMpure,15,16,12,10,13,9,11,14
1444,8,6,4,2,1,4,0,0,2,1,1,523,10,1,CMpure,14,16,12,10,NA,NA,NA,NA
1445,8,6,5,1,1,2,2,1,1,1,1,571,2,1,CMpure,16,10,NA,NA,NA,NA,NA,NA
1446,8,6,6,1,1,2,2,1,1,1,1,327,5,1,CMpure,9,13,NA,NA,NA,NA,NA,NA
1447,8,6,7,1,1,2,2,1,2,1,0,334,6,1,CMpure,1,6,NA,NA,NA,NA,NA,NA
1448,8,6,8,2,1,2,0,0,2,1,1,547,12,1,CMpure,10,14,NA,NA,NA,NA,NA,NA
1449,8,6,9,1,1,2,2,1,2,1,0,369,8,1,CMpure,4,8,NA,NA,NA,NA,NA,NA
1450,8,6,10,1,1,8,3,6,2,1,0,550,8,1,CMpure,3,1,8,6,4,5,2,7
1451,8,6,11,2,1,4,0,0,1,1,0,665,11,1,CMpure,2,1,7,6,NA,NA,NA,NA
1452,8,6,12,1,1,8,1,8,1,1,1,514,8,1,CMpure,16,15,10,12,11,9,14,13
1453,8,6,13,1,1,2,2,1,1,1,1,2817,5,1,CMpure,12,13,NA,NA,NA,NA,NA,NA
1454,8,6,14,2,1,4,0,0,2,1,1,777,9,1,CMpure,14,16,9,11,NA,NA,NA,NA
1455,8,6,15,2,1,4,0,0,2,1,1,514,9,1,CMpure,10,12,13,14,NA,NA,NA,NA
1456,8,6,16,2,1,8,0,0,2,1,1,433,10,1,CMpure,12,14,10,9,16,11,13,15
1457,8,6,17,2,1,4,0,0,1,1,0,489,16,1,CMpure,3,7,2,5,NA,NA,NA,NA
1458,8,6,18,2,1,4,0,0,2,1,1,511,12,1,CMpure,14,9,16,15,NA,NA,NA,NA
1459,8,6,19,1,1,8,8,1,1,1,1,589,1,1,CMpure,11,13,12,14,10,15,16,9
1460,8,6,20,1,1,4,4,1,2,1,0,399,6,1,CMpure,5,4,7,6,NA,NA,NA,NA
1461,8,6,21,1,1,2,1,2,2,1,0,1043,2,1,CMpure,2,1,NA,NA,NA,NA,NA,NA
1462,8,6,22,2,1,4,0,0,2,1,1,546,9,1,CMpure,11,13,10,14,NA,NA,NA,NA
1463,8,6,23,1,1,2,1,2,2,1,0,448,6,1,CMpure,6,4,NA,NA,NA,NA,NA,NA
1464,8,6,24,2,1,8,0,0,1,1,0,498,14,1,CMpure,4,2,8,5,1,7,3,6
1465,8,7,1,2,1,8,0,0,1,1,0,454,16,1,CMpure,5,4,2,6,3,8,7,1
1466,8,7,2,1,1,2,1,2,2,1,0,1080,2,1,CMpure,2,1,NA,NA,NA,NA,NA,NA
1467,8,7,3,2,1,2,0,0,1,1,0,417,15,1,CMpure,2,3,NA,NA,NA,NA,NA,NA
1468,8,7,4,2,1,2,0,0,2,1,1,388,13,1,CMpure,12,9,NA,NA,NA,NA,NA,NA
1469,8,7,5,1,1,2,1,2,2,1,0,376,2,1,CMpure,2,1,NA,NA,NA,NA,NA,NA
1470,8,7,6,2,1,4,0,0,2,1,1,610,11,1,CMpure,9,11,16,14,NA,NA,NA,NA
1471,8,7,7,2,1,4,0,0,1,1,0,435,11,1,CMpure,8,6,7,2,NA,NA,NA,NA
1472,8,7,8,2,1,4,0,0,1,1,0,410,13,1,CMpure,8,5,2,7,NA,NA,NA,NA
1473,8,7,9,1,1,2,1,2,1,1,1,494,2,1,CMpure,10,11,NA,NA,NA,NA,NA,NA
1474,8,7,10,2,1,8,0,0,2,1,1,493,14,1,CMpure,9,11,12,10,15,14,13,16
1475,8,7,11,2,1,4,0,0,2,1,1,435,13,1,CMpure,10,16,13,12,NA,NA,NA,NA
1476,8,7,12,2,1,2,0,0,2,1,1,549,14,1,CMpure,10,14,NA,NA,NA,NA,NA,NA
1477,8,7,13,2,1,4,0,0,1,1,0,440,16,1,CMpure,2,6,7,3,NA,NA,NA,NA
1478,8,7,14,2,1,2,0,0,2,1,1,587,14,1,CMpure,16,11,NA,NA,NA,NA,NA,NA
1479,8,7,15,1,1,4,1,4,2,1,0,540,3,1,CMpure,3,8,2,4,NA,NA,NA,NA
1480,8,7,16,2,1,2,0,0,2,1,1,571,16,1,CMpure,16,9,NA,NA,NA,NA,NA,NA
1481,8,7,17,2,1,2,0,0,2,1,1,488,10,1,CMpure,9,16,NA,NA,NA,NA,NA,NA
1482,8,7,18,1,1,4,1,4,2,1,0,526,5,1,CMpure,5,7,3,6,NA,NA,NA,NA
1483,8,7,19,1,1,8,5,4,1,1,1,557,5,1,CMpure,15,12,11,14,13,16,9,10
1484,8,7,20,2,1,2,0,0,1,1,0,475,9,1,CMpure,6,7,NA,NA,NA,NA,NA,NA
1485,8,7,21,1,1,2,2,1,2,1,0,411,8,1,CMpure,3,8,NA,NA,NA,NA,NA,NA
1486,8,7,22,2,1,4,0,0,2,1,1,499,16,1,CMpure,14,16,10,13,NA,NA,NA,NA
1487,8,7,23,1,1,8,8,1,1,1,1,386,7,1,CMpure,10,14,11,16,9,12,13,15
1488,8,7,24,1,1,2,1,2,2,1,0,406,5,1,CMpure,5,4,NA,NA,NA,NA,NA,NA
1489,8,8,1,2,1,8,0,0,2,1,1,477,16,1,CMpure,10,12,14,13,9,16,15,11
1490,8,8,2,1,1,4,4,1,1,1,1,339,2,1,CMpure,12,16,13,10,NA,NA,NA,NA
1491,8,8,3,1,1,2,1,2,1,1,1,1209,7,1,CMpure,15,13,NA,NA,NA,NA,NA,NA
1492,8,8,4,1,1,2,1,2,2,1,0,525,6,1,CMpure,6,7,NA,NA,NA,NA,NA,NA
1493,8,8,5,1,1,8,6,3,1,1,1,492,2,1,CMpure,15,9,13,16,12,10,14,11
1494,8,8,6,1,1,2,1,2,1,1,1,972,7,1,CMpure,15,13,NA,NA,NA,NA,NA,NA
1495,8,8,7,2,1,2,0,0,2,1,1,425,13,1,CMpure,12,14,NA,NA,NA,NA,NA,NA
1496,8,8,8,2,1,4,0,0,1,1,0,449,16,1,CMpure,2,8,3,1,NA,NA,NA,NA
1497,8,8,9,1,1,4,1,4,2,1,0,455,1,1,CMpure,1,7,6,3,NA,NA,NA,NA
1498,8,8,10,1,1,2,1,2,1,1,1,361,8,1,CMpure,16,15,NA,NA,NA,NA,NA,NA
1499,8,8,11,1,1,4,4,1,2,1,0,356,1,1,CMpure,7,6,3,1,NA,NA,NA,NA
1500,8,8,12,2,1,8,0,0,1,1,0,506,16,1,CMpure,5,7,1,4,2,3,8,6
1501,8,8,13,2,1,8,0,0,1,1,0,408,13,1,CMpure,8,3,2,7,5,6,1,4
1502,8,8,14,2,1,8,0,0,2,1,1,540,15,1,CMpure,9,12,10,15,16,14,11,13
1503,8,8,15,1,1,4,2,3,1,1,1,480,4,1,CMpure,9,12,13,10,NA,NA,NA,NA
1504,8,8,16,1,1,4,2,3,1,1,1,470,8,1,CMpure,11,16,13,12,NA,NA,NA,NA
1505,8,8,17,2,1,8,0,0,2,1,1,663,9,1,CMpure,13,14,15,16,12,11,9,10
1506,8,8,18,2,1,2,0,0,1,1,0,576,13,1,CMpure,7,2,NA,NA,NA,NA,NA,NA
1507,8,8,19,1,1,2,1,2,1,1,1,492,2,1,CMpure,10,14,NA,NA,NA,NA,NA,NA
1508,8,8,20,2,1,4,0,0,2,1,1,402,11,1,CMpure,13,14,11,15,NA,NA,NA,NA
1509,8,8,21,2,1,4,0,0,2,1,1,507,15,1,CMpure,13,14,16,15,NA,NA,NA,NA
1510,8,8,22,1,1,8,5,4,1,0,0,379,3,1,CMpure,7,4,2,5,3,6,8,1
1511,8,8,23,1,1,8,1,8,2,1,0,479,2,1,CMpure,2,3,1,7,6,8,5,4
1512,8,8,24,1,1,4,1,4,1,1,1,628,6,1,CMpure,14,12,10,15,NA,NA,NA,NA
1513,8,9,1,1,1,8,8,1,2,1,0,359,7,1,CMpure,2,1,5,4,3,6,8,7
1514,8,9,2,2,1,8,0,0,2,1,1,524,14,1,CMpure,15,9,11,16,14,10,13,12
1515,8,9,3,1,1,4,2,3,1,1,1,528,7,1,CMpure,10,15,16,13,NA,NA,NA,NA
1516,8,9,4,1,1,4,2,3,2,1,0,548,4,1,CMpure,6,4,7,2,NA,NA,NA,NA
1517,8,9,5,1,1,8,1,8,1,1,1,530,5,1,CMpure,13,9,16,12,11,14,10,15
1518,8,9,6,1,1,8,4,5,1,1,1,752,3,1,CMpure,15,16,13,11,14,10,12,9
1519,8,9,7,2,1,2,0,0,2,0,0,1318,12,1,CMpure,3,2,NA,NA,NA,NA,NA,NA
1520,8,9,8,2,1,8,0,0,1,1,0,613,12,1,CMpure,5,8,4,7,2,3,6,1
1521,8,9,9,1,1,2,2,1,1,1,1,528,7,1,CMpure,10,15,NA,NA,NA,NA,NA,NA
1522,8,9,10,1,1,4,4,1,2,1,0,404,7,1,CMpure,3,1,4,7,NA,NA,NA,NA
1523,8,9,11,1,1,4,3,2,1,1,1,589,7,1,CMpure,14,16,15,11,NA,NA,NA,NA
1524,8,9,12,2,1,4,0,0,1,1,0,494,14,1,CMpure,1,6,4,3,NA,NA,NA,NA
1525,8,9,13,1,1,4,3,2,1,1,1,627,3,1,CMpure,12,15,11,9,NA,NA,NA,NA
1526,8,9,14,1,1,4,1,4,2,1,0,483,3,1,CMpure,3,2,1,6,NA,NA,NA,NA
1527,8,9,15,2,1,4,0,0,2,1,1,505,13,1,CMpure,16,10,14,15,NA,NA,NA,NA
1528,8,9,16,2,1,8,0,0,1,1,0,601,9,1,CMpure,4,1,7,2,3,8,6,5
1529,8,9,17,1,1,2,1,2,1,1,1,453,7,1,CMpure,15,13,NA,NA,NA,NA,NA,NA
1530,8,9,18,1,1,2,2,1,1,1,1,470,7,1,CMpure,11,15,NA,NA,NA,NA,NA,NA
1531,8,9,19,1,1,2,2,1,1,1,1,392,8,1,CMpure,15,16,NA,NA,NA,NA,NA,NA
1532,8,9,20,2,1,4,0,0,2,1,1,497,10,1,CMpure,14,12,15,10,NA,NA,NA,NA
1533,8,9,21,2,1,2,0,0,1,1,0,545,14,1,CMpure,1,5,NA,NA,NA,NA,NA,NA
1534,8,9,22,2,1,8,0,0,1,1,0,558,9,1,CMpure,4,6,1,2,5,7,3,8
1535,8,9,23,2,1,8,0,0,2,1,1,507,15,1,CMpure,14,13,16,10,9,15,12,11
1536,8,9,24,1,1,2,2,1,1,1,1,347,6,1,CMpure,10,14,NA,NA,NA,NA,NA,NA
