,Unnamed: 0,Subnum,Block,Trial,Old,testcdisgard,Setsize,Serpos,Lag,Response,Correctness,Side,RT,WhichProbe,Stimkind,FileCondi,prob1,prob2,prob3,prob4,prob5,prob6,prob7,prob8,Probtype,Oldnew,Error
6479,6480,2,2,1,1,1,8,3,6,2,0,1,1139,79,0,MIX,6,7,1.0,3.0,77.0,78.0,79.0,80.0,AN,old,1
6480,6481,2,2,2,2,1,4,0,0,2,1,1,1045,83,0,MIX,7,6,81.0,82.0,,,,,AN,new,0
6481,6482,2,2,3,1,1,8,1,8,2,1,0,1299,85,0,MIX,4,2,7.0,1.0,84.0,85.0,86.0,87.0,AN,old,0
6483,6484,2,2,5,2,1,4,0,0,2,1,1,500,7,1,MIX,3,1,90.0,91.0,,,,,CM,new,0
6484,6485,2,2,6,1,1,8,8,1,2,0,1,1103,2,1,MIX,8,7,1.0,2.0,92.0,93.0,94.0,95.0,CM,old,1
6485,6486,2,2,7,2,1,8,0,0,1,1,0,1181,15,1,MIX,4,8,7.0,2.0,96.0,97.0,98.0,99.0,CM,new,0
6486,6487,2,2,8,2,1,8,0,0,2,0,0,775,104,0,MIX,5,1,8.0,2.0,100.0,101.0,102.0,103.0,AN,new,1
6487,6488,2,2,9,2,1,8,0,0,2,1,1,465,7,1,MIX,8,4,2.0,3.0,105.0,106.0,107.0,108.0,CM,new,0
6488,6489,2,2,10,1,1,2,2,1,1,0,0,1379,8,1,MIX,8,109,,,,,,,CM,old,1
6489,6490,2,2,11,2,1,4,0,0,1,0,1,1316,2,1,MIX,6,2,110.0,111.0,,,,,CM,new,1
6490,6491,2,2,12,2,1,4,0,0,2,0,0,959,11,1,MIX,3,5,112.0,113.0,,,,,CM,new,1
6492,6493,2,2,14,1,1,4,3,2,2,0,1,1047,115,0,MIX,2,4,115.0,116.0,,,,,AN,old,1
6493,6494,2,2,15,2,1,2,0,0,1,1,0,1152,118,0,MIX,8,117,,,,,,,AN,new,0
6494,6495,2,2,16,1,1,2,1,2,2,1,0,1645,119,0,MIX,7,119,,,,,,,AN,old,0
6495,6496,2,2,17,2,1,4,0,0,1,1,0,1019,122,0,MIX,3,6,120.0,121.0,,,,,AN,new,0
6496,6497,2,2,18,2,1,2,0,0,1,1,0,693,15,1,MIX,8,123,,,,,,,CM,new,0
6497,6498,2,2,19,2,1,2,0,0,1,1,0,790,125,0,MIX,3,124,,,,,,,AN,new,0
6498,6499,2,2,20,2,1,8,0,0,1,0,1,609,8,1,MIX,2,7,6.0,3.0,126.0,127.0,128.0,129.0,CM,new,1
6499,6500,2,2,21,2,1,4,0,0,1,1,0,770,12,1,MIX,6,5,130.0,131.0,,,,,CM,new,0
6501,6502,2,2,23,2,1,4,0,0,1,1,0,1147,138,0,MIX,6,4,136.0,137.0,,,,,AN,new,0
6503,6504,2,3,1,1,1,4,4,1,1,1,1,1368,1,1,MIX,1,7,141.0,142.0,,,,,CM,old,0
6504,6505,2,3,2,2,1,4,0,0,2,0,0,722,145,0,MIX,2,8,143.0,144.0,,,,,AN,new,1
6505,6506,2,3,3,2,1,4,0,0,2,0,0,1134,148,0,MIX,6,5,146.0,147.0,,,,,AN,new,1
6506,6507,2,3,4,1,1,2,1,2,2,1,0,972,149,0,MIX,1,149,,,,,,,AN,old,0
6508,6509,2,3,6,2,1,8,0,0,2,0,0,1786,14,1,MIX,1,6,3.0,5.0,153.0,154.0,155.0,156.0,CM,new,1
6509,6510,2,3,7,2,1,4,0,0,1,0,1,1523,2,1,MIX,7,2,157.0,158.0,,,,,CM,new,1
6511,6512,2,3,9,2,1,2,0,0,1,0,1,1116,1,1,MIX,7,163,,,,,,,CM,new,1
6512,6513,2,3,10,2,1,4,0,0,2,1,1,744,166,0,MIX,2,7,164.0,165.0,,,,,AN,new,0
6513,6514,2,3,11,2,1,8,0,0,2,1,1,772,171,0,MIX,8,5,3.0,7.0,167.0,168.0,169.0,170.0,AN,new,0
6514,6515,2,3,12,1,1,4,3,2,2,0,1,605,3,1,MIX,3,5,172.0,173.0,,,,,CM,old,1
6515,6516,2,3,13,1,1,4,4,1,1,0,0,1252,4,1,MIX,4,6,174.0,175.0,,,,,CM,old,1
6516,6517,2,3,14,2,1,4,0,0,2,1,1,707,4,1,MIX,7,3,176.0,177.0,,,,,CM,new,0
6517,6518,2,3,15,1,1,8,5,4,1,0,0,888,1,1,MIX,1,5,3.0,7.0,178.0,179.0,180.0,181.0,CM,old,1
6518,6519,2,3,16,2,1,4,0,0,2,1,1,1069,184,0,MIX,3,2,182.0,183.0,,,,,AN,new,0
6519,6520,2,3,17,2,1,8,0,0,2,1,1,1019,189,0,MIX,7,6,5.0,8.0,185.0,186.0,187.0,188.0,AN,new,0
6520,6521,2,3,18,1,1,4,3,2,1,0,0,867,4,1,MIX,4,8,190.0,191.0,,,,,CM,old,1
6521,6522,2,3,19,1,1,8,6,3,1,1,1,859,3,1,MIX,5,2,3.0,4.0,192.0,193.0,194.0,195.0,CM,old,0
6522,6523,2,3,20,2,1,4,0,0,1,0,1,721,1,1,MIX,8,3,196.0,197.0,,,,,CM,new,1
6523,6524,2,3,21,2,1,2,0,0,1,0,1,655,3,1,MIX,1,198,,,,,,,CM,new,1
6524,6525,2,3,22,2,1,8,0,0,2,1,1,501,203,0,MIX,8,1,2.0,6.0,199.0,200.0,201.0,202.0,AN,new,0
6525,6526,2,3,23,2,1,2,0,0,2,1,1,524,205,0,MIX,3,204,,,,,,,AN,new,0
6526,6527,2,3,24,2,1,8,0,0,2,0,0,562,16,1,MIX,2,1,4.0,5.0,206.0,207.0,208.0,209.0,CM,new,1
6527,6528,2,4,1,1,1,8,1,8,2,0,1,726,2,1,MIX,2,3,8.0,7.0,210.0,211.0,212.0,213.0,CM,old,1
6529,6530,2,4,3,2,1,8,0,0,1,1,0,395,220,0,MIX,6,8,7.0,1.0,216.0,217.0,218.0,219.0,AN,new,0
6530,6531,2,4,4,1,1,8,6,3,1,0,0,1029,2,1,MIX,2,4,7.0,6.0,221.0,222.0,223.0,224.0,CM,old,1
6531,6532,2,4,5,1,1,2,2,1,1,1,1,768,8,1,MIX,8,225,,,,,,,CM,old,0
6532,6533,2,4,6,1,1,2,2,1,1,1,1,525,7,1,MIX,7,226,,,,,,,CM,old,0
6533,6534,2,4,7,2,1,2,0,0,2,0,0,1123,15,1,MIX,7,227,,,,,,,CM,new,1
6534,6535,2,4,8,2,1,8,0,0,1,1,0,568,232,0,MIX,6,4,3.0,5.0,228.0,229.0,230.0,231.0,AN,new,0
6535,6536,2,4,9,1,1,4,1,4,2,0,1,329,234,0,MIX,8,5,233.0,234.0,,,,,AN,old,1
6536,6537,2,4,10,1,1,8,2,7,1,1,1,294,5,1,MIX,4,1,5.0,6.0,235.0,236.0,237.0,238.0,CM,old,0
6537,6538,2,4,11,2,1,8,0,0,2,1,1,716,243,0,MIX,5,8,4.0,1.0,239.0,240.0,241.0,242.0,AN,new,0
6538,6539,2,4,12,2,1,8,0,0,2,0,0,838,248,0,MIX,6,7,2.0,4.0,244.0,245.0,246.0,247.0,AN,new,1
6539,6540,2,4,13,1,1,2,1,2,2,1,0,672,249,0,MIX,7,249,,,,,,,AN,old,0
6540,6541,2,4,14,1,1,2,2,1,1,0,0,865,4,1,MIX,4,250,,,,,,,CM,old,1
6541,6542,2,4,15,1,1,2,1,2,2,1,0,650,251,0,MIX,2,251,,,,,,,AN,old,0
6542,6543,2,4,16,2,1,2,0,0,1,0,1,538,253,0,MIX,6,252,,,,,,,AN,new,1
6543,6544,2,4,17,1,1,2,2,1,2,1,0,798,4,1,MIX,4,254,,,,,,,CM,old,0
6544,6545,2,4,18,2,1,8,0,0,2,0,0,782,14,1,MIX,7,3,5.0,8.0,255.0,256.0,257.0,258.0,CM,new,1
6545,6546,2,4,19,1,1,4,4,1,1,0,0,319,260,0,MIX,1,2,259.0,260.0,,,,,AN,old,1
6546,6547,2,4,20,2,1,4,0,0,1,1,0,539,263,0,MIX,1,7,261.0,262.0,,,,,AN,new,0
6547,6548,2,4,21,2,1,8,0,0,1,0,1,759,268,0,MIX,2,7,1.0,6.0,264.0,265.0,266.0,267.0,AN,new,1
6548,6549,2,4,22,1,1,2,1,2,2,0,1,748,269,0,MIX,7,269,,,,,,,AN,old,1
6549,6550,2,4,23,1,1,8,4,5,1,0,0,879,271,0,MIX,1,7,6.0,3.0,270.0,271.0,272.0,273.0,AN,old,1
6550,6551,2,4,24,1,1,2,1,2,2,1,0,1105,274,0,MIX,6,274,,,,,,,AN,old,0
6551,6552,2,5,1,2,1,4,0,0,1,0,1,516,277,0,MIX,1,4,275.0,276.0,,,,,AN,new,1
6552,6553,2,5,2,2,1,2,0,0,2,1,1,1065,279,0,MIX,2,278,,,,,,,AN,new,0
6553,6554,2,5,3,1,1,2,2,1,1,0,0,810,5,1,MIX,5,280,,,,,,,CM,old,1
6554,6555,2,5,4,1,1,2,2,1,2,1,0,413,281,0,MIX,4,281,,,,,,,AN,old,0
6555,6556,2,5,5,2,1,4,0,0,2,1,1,661,2,1,MIX,3,4,282.0,283.0,,,,,CM,new,0
6556,6557,2,5,6,2,1,2,0,0,2,1,1,755,285,0,MIX,7,284,,,,,,,AN,new,0
6557,6558,2,5,7,2,1,4,0,0,2,0,0,853,288,0,MIX,3,1,286.0,287.0,,,,,AN,new,1
6558,6559,2,5,8,2,1,8,0,0,2,1,1,717,7,1,MIX,1,4,3.0,5.0,289.0,290.0,291.0,292.0,CM,new,0
6559,6560,2,5,9,1,1,2,1,2,1,1,1,1491,8,1,MIX,8,293,,,,,,,CM,old,0
6560,6561,2,5,10,1,1,4,3,2,2,0,1,825,7,1,MIX,7,3,294.0,295.0,,,,,CM,old,1
6561,6562,2,5,11,2,1,4,0,0,2,1,1,416,298,0,MIX,7,1,296.0,297.0,,,,,AN,new,0
6562,6563,2,5,12,1,1,4,2,3,2,0,1,1686,299,0,MIX,4,2,299.0,300.0,,,,,AN,old,1
6563,6564,2,5,13,1,1,2,1,2,1,1,1,357,301,0,MIX,5,301,,,,,,,AN,old,0
6564,6565,2,5,14,1,1,4,2,3,1,1,1,295,302,0,MIX,8,7,302.0,303.0,,,,,AN,old,0
6565,6566,2,5,15,1,1,8,6,3,1,1,1,506,306,0,MIX,6,3,5.0,4.0,304.0,305.0,306.0,307.0,AN,old,0
6566,6567,2,5,16,2,1,8,0,0,2,1,1,602,1,1,MIX,8,6,1.0,2.0,308.0,309.0,310.0,311.0,CM,new,0
6567,6568,2,5,17,1,1,2,2,1,2,1,0,453,312,0,MIX,4,312,,,,,,,AN,old,0
6568,6569,2,5,18,1,1,2,2,1,2,1,0,343,4,1,MIX,4,313,,,,,,,CM,old,0
6569,6570,2,5,19,2,1,8,0,0,1,1,0,577,318,0,MIX,6,2,1.0,8.0,314.0,315.0,316.0,317.0,AN,new,0
6570,6571,2,5,20,2,1,8,0,0,2,1,1,641,323,0,MIX,3,6,1.0,5.0,319.0,320.0,321.0,322.0,AN,new,0
6571,6572,2,5,21,1,1,2,1,2,2,1,0,787,1,1,MIX,1,324,,,,,,,CM,old,0
6572,6573,2,5,22,1,1,2,2,1,2,0,1,415,2,1,MIX,2,325,,,,,,,CM,old,1
6573,6574,2,5,23,2,1,4,0,0,2,1,1,597,3,1,MIX,3,2,326.0,327.0,,,,,CM,new,0
6574,6575,2,5,24,1,1,4,3,2,1,0,0,558,328,0,MIX,3,1,328.0,329.0,,,,,AN,old,1
6575,6576,2,6,1,1,1,2,2,1,1,1,1,437,330,0,MIX,4,330,,,,,,,AN,old,0
6576,6577,2,6,2,1,1,8,4,5,2,1,0,870,331,0,MIX,5,6,3.0,8.0,331.0,332.0,333.0,334.0,AN,old,0
6577,6578,2,6,3,1,1,2,1,2,2,0,1,773,7,1,MIX,7,335,,,,,,,CM,old,1
6578,6579,2,6,4,2,1,2,0,0,1,1,0,538,9,1,MIX,3,336,,,,,,,CM,new,0
6579,6580,2,6,5,1,1,2,1,2,1,1,1,361,7,1,MIX,7,337,,,,,,,CM,old,0
6580,6581,2,6,6,2,1,4,0,0,2,1,1,507,340,0,MIX,4,1,338.0,339.0,,,,,AN,new,0
6581,6582,2,6,7,2,1,2,0,0,2,1,1,531,5,1,MIX,8,341,,,,,,,CM,new,0
6582,6583,2,6,8,1,1,4,3,2,2,1,0,630,342,0,MIX,3,1,342.0,343.0,,,,,AN,old,0
6583,6584,2,6,9,1,1,2,1,2,1,1,1,841,7,1,MIX,7,344,,,,,,,CM,old,0
6584,6585,2,6,10,2,1,2,0,0,2,1,1,650,346,0,MIX,2,345,,,,,,,AN,new,0
6585,6586,2,6,11,2,1,2,0,0,2,1,1,554,348,0,MIX,3,347,,,,,,,AN,new,0
6586,6587,2,6,12,2,1,4,0,0,1,1,0,460,351,0,MIX,2,8,349.0,350.0,,,,,AN,new,0
6587,6588,2,6,13,2,1,2,0,0,1,0,1,686,4,1,MIX,2,352,,,,,,,CM,new,1
6588,6589,2,6,14,2,1,8,0,0,1,1,0,1491,357,0,MIX,3,2,6.0,7.0,353.0,354.0,355.0,356.0,AN,new,0
6589,6590,2,6,15,2,1,4,0,0,2,1,1,567,6,1,MIX,4,8,358.0,359.0,,,,,CM,new,0
6590,6591,2,6,16,1,1,4,3,2,2,0,1,1217,6,1,MIX,6,7,360.0,361.0,,,,,CM,old,1
6591,6592,2,6,17,1,1,8,2,7,2,1,0,546,363,0,MIX,2,1,6.0,7.0,362.0,363.0,364.0,365.0,AN,old,0
6592,6593,2,6,18,1,1,8,4,5,2,1,0,637,368,0,MIX,7,6,1.0,8.0,366.0,367.0,368.0,369.0,AN,old,0
6593,6594,2,6,19,2,1,8,0,0,2,1,1,901,2,1,MIX,5,8,7.0,3.0,370.0,371.0,372.0,373.0,CM,new,0
6594,6595,2,6,20,1,1,8,3,6,1,1,1,723,375,0,MIX,8,4,6.0,7.0,374.0,375.0,376.0,377.0,AN,old,0
6595,6596,2,6,21,2,1,2,0,0,2,1,1,570,3,1,MIX,5,378,,,,,,,CM,new,0
6596,6597,2,6,22,2,1,2,0,0,1,0,1,999,3,1,MIX,3,379,,,,,,,CM,new,1
6597,6598,2,6,23,2,1,4,0,0,1,1,0,576,14,1,MIX,4,2,380.0,381.0,,,,,CM,new,0
6598,6599,2,6,24,1,1,4,2,3,1,1,1,1776,383,0,MIX,1,7,382.0,383.0,,,,,AN,old,0
6599,6600,2,7,1,1,1,8,4,5,1,0,0,645,386,0,MIX,5,6,7.0,8.0,384.0,385.0,386.0,387.0,AN,old,1
6600,6601,2,7,2,1,1,8,6,3,2,1,0,741,5,1,MIX,4,5,8.0,1.0,388.0,389.0,390.0,391.0,CM,old,0
6601,6602,2,7,3,2,1,8,0,0,1,1,0,656,396,0,MIX,5,8,1.0,4.0,392.0,393.0,394.0,395.0,AN,new,0
6602,6603,2,7,4,2,1,2,0,0,2,1,1,913,7,1,MIX,6,397,,,,,,,CM,new,0
6603,6604,2,7,5,2,1,2,0,0,1,1,0,455,399,0,MIX,1,398,,,,,,,AN,new,0
6604,6605,2,7,6,1,1,4,2,3,1,1,1,1628,1,1,MIX,4,1,400.0,401.0,,,,,CM,old,0
6605,6606,2,7,7,2,1,8,0,0,2,1,1,987,406,0,MIX,5,7,8.0,4.0,402.0,403.0,404.0,405.0,AN,new,0
6606,6607,2,7,8,2,1,2,0,0,1,0,1,768,4,1,MIX,8,407,,,,,,,CM,new,1
6607,6608,2,7,9,2,1,8,0,0,1,0,1,944,3,1,MIX,6,7,2.0,1.0,408.0,409.0,410.0,411.0,CM,new,1
6608,6609,2,7,10,2,1,8,0,0,2,1,1,666,416,0,MIX,4,1,7.0,8.0,412.0,413.0,414.0,415.0,AN,new,0
6609,6610,2,7,11,2,1,4,0,0,1,1,0,855,419,0,MIX,4,1,417.0,418.0,,,,,AN,new,0
6610,6611,2,7,12,2,1,8,0,0,1,0,1,727,8,1,MIX,2,4,6.0,7.0,420.0,421.0,422.0,423.0,CM,new,1
6611,6612,2,7,13,2,1,2,0,0,1,1,0,622,14,1,MIX,1,424,,,,,,,CM,new,0
6612,6613,2,7,14,2,1,4,0,0,2,1,1,1221,427,0,MIX,2,3,425.0,426.0,,,,,AN,new,0
6613,6614,2,7,15,1,1,4,1,4,1,1,1,1141,428,0,MIX,1,4,428.0,429.0,,,,,AN,old,0
6614,6615,2,7,16,2,1,8,0,0,1,1,0,1143,16,1,MIX,2,6,8.0,7.0,430.0,431.0,432.0,433.0,CM,new,0
6615,6616,2,7,17,2,1,8,0,0,1,1,0,1027,438,0,MIX,4,1,2.0,5.0,434.0,435.0,436.0,437.0,AN,new,0
6616,6617,2,7,18,2,1,4,0,0,1,1,0,955,441,0,MIX,2,5,439.0,440.0,,,,,AN,new,0
6617,6618,2,7,19,2,1,2,0,0,2,1,1,969,6,1,MIX,7,442,,,,,,,CM,new,0
6618,6619,2,7,20,1,1,8,5,4,2,0,1,1790,443,0,MIX,6,7,8.0,2.0,443.0,444.0,445.0,446.0,AN,old,1
6620,6621,2,7,22,1,1,2,1,2,1,1,1,986,4,1,MIX,4,449,,,,,,,CM,old,0
6621,6622,2,7,23,2,1,8,0,0,1,1,0,1059,454,0,MIX,5,1,6.0,3.0,450.0,451.0,452.0,453.0,AN,new,0
6622,6623,2,7,24,2,1,4,0,0,1,1,0,937,457,0,MIX,5,6,455.0,456.0,,,,,AN,new,0
6623,6624,2,8,1,2,1,2,0,0,2,1,1,863,5,1,MIX,2,458,,,,,,,CM,new,0
6624,6625,2,8,2,1,1,8,3,6,2,1,0,686,461,0,MIX,5,4,3.0,2.0,459.0,460.0,461.0,462.0,AN,old,0
6625,6626,2,8,3,1,1,2,2,1,2,0,1,550,463,0,MIX,6,463,,,,,,,AN,old,1
6626,6627,2,8,4,1,1,8,7,2,2,1,0,466,467,0,MIX,5,7,4.0,8.0,464.0,465.0,466.0,467.0,AN,old,0
6627,6628,2,8,5,2,1,8,0,0,2,1,1,841,472,0,MIX,5,8,1.0,2.0,468.0,469.0,470.0,471.0,AN,new,0
6628,6629,2,8,6,2,1,8,0,0,2,1,1,735,2,1,MIX,2,8,7.0,1.0,473.0,474.0,475.0,476.0,CM,new,0
6629,6630,2,8,7,2,1,4,0,0,1,1,0,930,479,0,MIX,8,2,477.0,478.0,,,,,AN,new,0
6630,6631,2,8,8,2,1,8,0,0,1,1,0,855,484,0,MIX,2,3,6.0,1.0,480.0,481.0,482.0,483.0,AN,new,0
6631,6632,2,8,9,2,1,2,0,0,1,1,0,704,13,1,MIX,6,485,,,,,,,CM,new,0
6632,6633,2,8,10,2,1,2,0,0,2,1,1,1111,487,0,MIX,3,486,,,,,,,AN,new,0
6633,6634,2,8,11,2,1,4,0,0,1,1,0,1172,12,1,MIX,1,2,488.0,489.0,,,,,CM,new,0
6634,6635,2,8,12,2,1,8,0,0,1,1,0,1071,494,0,MIX,2,6,5.0,7.0,490.0,491.0,492.0,493.0,AN,new,0
6635,6636,2,8,13,2,1,2,0,0,2,1,1,752,4,1,MIX,7,495,,,,,,,CM,new,0
6636,6637,2,8,14,2,1,4,0,0,1,1,0,1154,9,1,MIX,2,1,496.0,497.0,,,,,CM,new,0
6637,6638,2,8,15,2,1,8,0,0,1,1,0,702,502,0,MIX,3,1,7.0,8.0,498.0,499.0,500.0,501.0,AN,new,0
6638,6639,2,8,16,2,1,2,0,0,1,1,0,1269,12,1,MIX,6,503,,,,,,,CM,new,0
6639,6640,2,8,17,2,1,8,0,0,1,1,0,1092,14,1,MIX,6,2,7.0,5.0,504.0,505.0,506.0,507.0,CM,new,0
6640,6641,2,8,18,2,1,4,0,0,2,1,1,992,8,1,MIX,1,2,508.0,509.0,,,,,CM,new,0
6641,6642,2,8,19,2,1,4,0,0,2,1,1,817,6,1,MIX,2,5,510.0,511.0,,,,,CM,new,0
6642,6643,2,8,20,2,1,2,0,0,2,1,1,716,1,1,MIX,8,512,,,,,,,CM,new,0
6643,6644,2,8,21,1,1,4,3,2,1,1,1,871,513,0,MIX,6,7,513.0,514.0,,,,,AN,old,0
6644,6645,2,8,22,1,1,2,1,2,2,1,0,944,5,1,MIX,5,515,,,,,,,CM,old,0
6645,6646,2,8,23,2,1,4,0,0,2,1,1,953,518,0,MIX,2,8,516.0,517.0,,,,,AN,new,0
6646,6647,2,8,24,1,1,8,1,8,1,1,1,1061,1,1,MIX,1,4,7.0,3.0,519.0,520.0,521.0,522.0,CM,old,0
6647,6648,2,9,1,1,1,4,3,2,2,1,0,910,523,0,MIX,5,8,523.0,524.0,,,,,AN,old,0
6648,6649,2,9,2,2,1,4,0,0,1,1,0,706,527,0,MIX,1,8,525.0,526.0,,,,,AN,new,0
6649,6650,2,9,3,1,1,8,5,4,2,1,0,646,3,1,MIX,6,4,3.0,8.0,528.0,529.0,530.0,531.0,CM,old,0
6650,6651,2,9,4,2,1,8,0,0,2,1,1,1503,536,0,MIX,5,1,6.0,2.0,532.0,533.0,534.0,535.0,AN,new,0
6651,6652,2,9,5,2,1,2,0,0,1,1,0,1135,12,1,MIX,5,537,,,,,,,CM,new,0
6652,6653,2,9,6,2,1,8,0,0,2,0,0,1139,9,1,MIX,1,8,6.0,4.0,538.0,539.0,540.0,541.0,CM,new,1
6653,6654,2,9,7,1,1,2,1,2,2,1,0,570,542,0,MIX,2,542,,,,,,,AN,old,0
6654,6655,2,9,8,1,1,8,8,1,1,1,1,900,5,1,MIX,5,3,2.0,6.0,543.0,544.0,545.0,546.0,CM,old,0
6655,6656,2,9,9,2,1,8,0,0,2,1,1,627,551,0,MIX,1,8,3.0,2.0,547.0,548.0,549.0,550.0,AN,new,0
6656,6657,2,9,10,2,1,2,0,0,1,1,0,1053,15,1,MIX,1,552,,,,,,,CM,new,0
6657,6658,2,9,11,2,1,4,0,0,1,1,0,908,16,1,MIX,6,1,553.0,554.0,,,,,CM,new,0
6658,6659,2,9,12,1,1,4,2,3,1,1,1,994,6,1,MIX,6,5,555.0,556.0,,,,,CM,old,0
6659,6660,2,9,13,1,1,2,2,1,2,1,0,910,557,0,MIX,4,557,,,,,,,AN,old,0
6660,6661,2,9,14,1,1,4,3,2,1,1,1,891,558,0,MIX,4,8,558.0,559.0,,,,,AN,old,0
6661,6662,2,9,15,1,1,8,1,8,2,1,0,905,562,0,MIX,6,4,1.0,7.0,560.0,561.0,562.0,563.0,AN,old,0
6662,6663,2,9,16,2,1,4,0,0,1,0,1,686,7,1,MIX,3,6,564.0,565.0,,,,,CM,new,1
6663,6664,2,9,17,2,1,2,0,0,2,1,1,878,567,0,MIX,5,566,,,,,,,AN,new,0
6664,6665,2,9,18,1,1,4,1,4,2,1,0,812,4,1,MIX,3,4,568.0,569.0,,,,,CM,old,0
6665,6666,2,9,19,1,1,8,2,7,2,1,0,1115,6,1,MIX,8,6,3.0,1.0,570.0,571.0,572.0,573.0,CM,old,0
6666,6667,2,9,20,1,1,2,2,1,1,1,1,930,5,1,MIX,5,574,,,,,,,CM,old,0
6667,6668,2,9,21,1,1,2,1,2,1,1,1,1745,575,0,MIX,1,575,,,,,,,AN,old,0
6668,6669,2,9,22,2,1,2,0,0,1,1,0,1175,16,1,MIX,2,576,,,,,,,CM,new,0
6669,6670,2,9,23,1,1,2,2,1,1,0,0,404,1,1,MIX,1,577,,,,,,,CM,old,1
6670,6671,2,9,24,2,1,2,0,0,2,1,1,1071,579,0,MIX,3,578,,,,,,,AN,new,0
6671,6672,3,2,1,2,1,4,0,0,1,1,0,701,11,1,MIX,5,2,76.0,77.0,,,,,CM,new,0
6672,6673,3,2,2,1,1,2,1,2,2,1,0,836,78,0,MIX,1,78,,,,,,,AN,old,0
6673,6674,3,2,3,2,1,4,0,0,2,1,1,522,81,0,MIX,4,6,79.0,80.0,,,,,AN,new,0
6674,6675,3,2,4,2,1,8,0,0,1,1,0,519,86,0,MIX,3,8,6.0,4.0,82.0,83.0,84.0,85.0,AN,new,0
6675,6676,3,2,5,2,1,4,0,0,1,1,0,458,11,1,MIX,1,6,87.0,88.0,,,,,CM,new,0
6676,6677,3,2,6,1,1,8,1,8,1,1,1,649,90,0,MIX,7,1,5.0,4.0,89.0,90.0,91.0,92.0,AN,old,0
6677,6678,3,2,7,1,1,8,5,4,1,1,1,593,93,0,MIX,4,6,2.0,7.0,93.0,94.0,95.0,96.0,AN,old,0
6678,6679,3,2,8,1,1,4,2,3,1,1,1,513,8,1,MIX,1,8,97.0,98.0,,,,,CM,old,0
6679,6680,3,2,9,1,1,4,2,3,2,1,0,852,7,1,MIX,8,7,99.0,100.0,,,,,CM,old,0
6680,6681,3,2,10,2,1,2,0,0,1,1,0,470,14,1,MIX,1,101,,,,,,,CM,new,0
6681,6682,3,2,11,1,1,2,2,1,1,1,1,407,7,1,MIX,7,102,,,,,,,CM,old,0
6682,6683,3,2,12,1,1,4,4,1,2,1,0,526,103,0,MIX,2,8,103.0,104.0,,,,,AN,old,0
6683,6684,3,2,13,2,1,8,0,0,1,1,0,843,11,1,MIX,2,3,4.0,8.0,105.0,106.0,107.0,108.0,CM,new,0
6684,6685,3,2,14,2,1,2,0,0,2,0,0,1565,11,1,MIX,5,109,,,,,,,CM,new,1
6685,6686,3,2,15,2,1,4,0,0,1,1,0,502,16,1,MIX,4,5,110.0,111.0,,,,,CM,new,0
6686,6687,3,2,16,2,1,4,0,0,2,1,1,554,8,1,MIX,6,7,112.0,113.0,,,,,CM,new,0
6687,6688,3,2,17,2,1,8,0,0,1,1,0,630,13,1,MIX,2,6,5.0,3.0,114.0,115.0,116.0,117.0,CM,new,0
6688,6689,3,2,18,1,1,2,1,2,2,1,0,1089,118,0,MIX,1,118,,,,,,,AN,old,0
6689,6690,3,2,19,1,1,2,2,1,2,1,0,409,119,0,MIX,4,119,,,,,,,AN,old,0
6690,6691,3,2,20,1,1,2,2,1,2,1,0,876,2,1,MIX,2,120,,,,,,,CM,old,0
6691,6692,3,2,21,1,1,8,4,5,2,1,0,892,8,1,MIX,8,2,5.0,7.0,121.0,122.0,123.0,124.0,CM,old,0
6692,6693,3,2,22,1,1,2,1,2,1,1,1,604,6,1,MIX,6,125,,,,,,,CM,old,0
6693,6694,3,2,23,2,1,2,0,0,2,1,1,758,127,0,MIX,7,126,,,,,,,AN,new,0
6694,6695,3,2,24,2,1,4,0,0,2,0,0,752,130,0,MIX,1,8,128.0,129.0,,,,,AN,new,1
6695,6696,3,3,1,2,1,2,0,0,1,1,0,606,132,0,MIX,4,131,,,,,,,AN,new,0
6696,6697,3,3,2,2,1,2,0,0,2,1,1,553,134,0,MIX,3,133,,,,,,,AN,new,0
6697,6698,3,3,3,2,1,4,0,0,2,1,1,554,137,0,MIX,5,1,135.0,136.0,,,,,AN,new,0
6698,6699,3,3,4,1,1,2,1,2,1,1,1,839,6,1,MIX,6,138,,,,,,,CM,old,0
6699,6700,3,3,5,2,1,2,0,0,1,1,0,617,140,0,MIX,5,139,,,,,,,AN,new,0
6700,6701,3,3,6,2,1,4,0,0,2,1,1,984,2,1,MIX,2,8,141.0,142.0,,,,,CM,new,0
6701,6702,3,3,7,2,1,2,0,0,1,1,0,436,144,0,MIX,8,143,,,,,,,AN,new,0
6702,6703,3,3,8,2,1,2,0,0,2,1,1,598,146,0,MIX,4,145,,,,,,,AN,new,0
6703,6704,3,3,9,1,1,4,4,1,1,0,0,838,1,1,MIX,1,5,147.0,148.0,,,,,CM,old,1
6704,6705,3,3,10,1,1,8,1,8,1,1,1,598,149,0,MIX,4,6,8.0,1.0,149.0,150.0,151.0,152.0,AN,old,0
6705,6706,3,3,11,1,1,2,1,2,2,1,0,977,4,1,MIX,4,153,,,,,,,CM,old,0
6707,6708,3,3,13,1,1,4,2,3,1,1,1,529,4,1,MIX,5,4,156.0,157.0,,,,,CM,old,0
6708,6709,3,3,14,2,1,2,0,0,1,1,0,624,159,0,MIX,7,158,,,,,,,AN,new,0
6709,6710,3,3,15,1,1,8,8,1,1,1,1,1322,161,0,MIX,8,1,2.0,6.0,160.0,161.0,162.0,163.0,AN,old,0
6711,6712,3,3,17,2,1,2,0,0,2,1,1,685,166,0,MIX,1,165,,,,,,,AN,new,0
6714,6715,3,3,20,2,1,8,0,0,2,0,0,855,175,0,MIX,5,3,4.0,2.0,171.0,172.0,173.0,174.0,AN,new,1
6715,6716,3,3,21,2,1,8,0,0,1,1,0,469,180,0,MIX,6,5,1.0,8.0,176.0,177.0,178.0,179.0,AN,new,0
6716,6717,3,3,22,2,1,2,0,0,2,1,1,870,182,0,MIX,8,181,,,,,,,AN,new,0
6717,6718,3,3,23,1,1,8,6,3,2,1,0,516,3,1,MIX,1,3,7.0,4.0,183.0,184.0,185.0,186.0,CM,old,0
6718,6719,3,3,24,2,1,4,0,0,1,1,0,582,189,0,MIX,4,7,187.0,188.0,,,,,AN,new,0
6719,6720,3,4,1,1,1,8,2,7,2,0,1,554,193,0,MIX,7,5,4.0,6.0,190.0,191.0,192.0,193.0,AN,old,1
6720,6721,3,4,2,2,1,8,0,0,1,1,0,1655,14,1,MIX,1,2,4.0,8.0,194.0,195.0,196.0,197.0,CM,new,0
6721,6722,3,4,4,1,1,2,1,2,1,1,1,881,5,1,MIX,5,200,,,,,,,CM,old,0
6722,6723,3,4,5,2,1,2,0,0,2,1,1,849,202,0,MIX,2,201,,,,,,,AN,new,0
6723,6724,3,4,6,1,1,2,2,1,2,1,0,483,1,1,MIX,1,203,,,,,,,CM,old,0
6724,6725,3,4,7,1,1,4,2,3,2,1,0,648,205,0,MIX,8,7,204.0,205.0,,,,,AN,old,0
6725,6726,3,4,8,1,1,4,2,3,2,1,0,454,206,0,MIX,2,1,206.0,207.0,,,,,AN,old,0
6726,6727,3,4,10,1,1,4,4,1,2,1,0,374,5,1,MIX,5,1,209.0,210.0,,,,,CM,old,0
6727,6728,3,4,11,1,1,2,1,2,1,1,1,730,7,1,MIX,7,211,,,,,,,CM,old,0
6728,6729,3,4,13,1,1,4,2,3,2,1,0,642,6,1,MIX,1,6,216.0,217.0,,,,,CM,old,0
6729,6730,3,4,14,2,1,2,0,0,1,1,0,508,219,0,MIX,8,218,,,,,,,AN,new,0
6730,6731,3,4,15,2,1,4,0,0,2,1,1,880,3,1,MIX,2,5,220.0,221.0,,,,,CM,new,0
6731,6732,3,4,16,2,1,8,0,0,1,1,0,1166,12,1,MIX,5,1,3.0,6.0,222.0,223.0,224.0,225.0,CM,new,0
6733,6734,3,4,19,1,1,8,7,2,2,1,0,477,1,1,MIX,1,2,3.0,4.0,230.0,231.0,232.0,233.0,CM,old,0
6734,6735,3,4,20,2,1,8,0,0,1,1,0,507,9,1,MIX,5,1,3.0,6.0,234.0,235.0,236.0,237.0,CM,new,0
6735,6736,3,4,21,2,1,8,0,0,1,1,0,568,242,0,MIX,8,1,3.0,5.0,238.0,239.0,240.0,241.0,AN,new,0
6736,6737,3,4,22,1,1,4,4,1,2,1,0,474,244,0,MIX,3,2,243.0,244.0,,,,,AN,old,0
6737,6738,3,4,23,1,1,2,1,2,1,1,1,523,8,1,MIX,8,245,,,,,,,CM,old,0
6738,6739,3,5,1,1,1,4,4,1,2,1,0,323,251,0,MIX,7,8,250.0,251.0,,,,,AN,old,0
6739,6740,3,5,3,2,1,8,0,0,2,1,1,1344,7,1,MIX,2,4,3.0,6.0,253.0,254.0,255.0,256.0,CM,new,0
6740,6741,3,5,4,1,1,8,3,6,2,1,0,524,258,0,MIX,2,8,1.0,6.0,257.0,258.0,259.0,260.0,AN,old,0
6741,6742,3,5,5,2,1,4,0,0,2,1,1,575,263,0,MIX,8,2,261.0,262.0,,,,,AN,new,0
6743,6744,3,5,7,2,1,2,0,0,1,0,1,683,2,1,MIX,4,268,,,,,,,CM,new,1
6744,6745,3,5,8,1,1,4,2,3,2,1,0,745,270,0,MIX,3,7,269.0,270.0,,,,,AN,old,0
6746,6747,3,5,10,1,1,8,5,4,1,1,1,869,6,1,MIX,4,1,5.0,6.0,273.0,274.0,275.0,276.0,CM,old,0
6747,6748,3,5,11,1,1,4,3,2,2,1,0,731,8,1,MIX,4,8,277.0,278.0,,,,,CM,old,0
6748,6749,3,5,12,2,1,8,0,0,1,1,0,529,11,1,MIX,8,1,7.0,6.0,279.0,280.0,281.0,282.0,CM,new,0
6749,6750,3,5,13,2,1,2,0,0,2,1,1,527,284,0,MIX,3,283,,,,,,,AN,new,0
6750,6751,3,5,14,1,1,2,1,2,2,1,0,477,2,1,MIX,2,285,,,,,,,CM,old,0
6751,6752,3,5,15,1,1,4,4,1,2,1,0,434,287,0,MIX,4,1,286.0,287.0,,,,,AN,old,0
6752,6753,3,5,16,2,1,8,0,0,1,0,1,1299,4,1,MIX,4,5,7.0,1.0,288.0,289.0,290.0,291.0,CM,new,1
6753,6754,3,5,17,1,1,2,1,2,2,1,0,930,3,1,MIX,3,292,,,,,,,CM,old,0
6754,6755,3,5,18,2,1,2,0,0,1,1,0,496,14,1,MIX,4,293,,,,,,,CM,new,0
6755,6756,3,5,19,2,1,2,0,0,1,1,0,608,15,1,MIX,6,294,,,,,,,CM,new,0
6756,6757,3,5,21,2,1,2,0,0,2,1,1,422,2,1,MIX,6,296,,,,,,,CM,new,0
6758,6759,3,5,23,1,1,4,2,3,2,1,0,576,302,0,MIX,1,3,301.0,302.0,,,,,AN,old,0
6760,6761,3,6,1,2,1,2,0,0,2,1,1,508,309,0,MIX,1,308,,,,,,,AN,new,0
6761,6762,3,6,2,2,1,8,0,0,1,1,0,712,314,0,MIX,2,5,8.0,3.0,310.0,311.0,312.0,313.0,AN,new,0
6762,6763,3,6,3,1,1,4,1,4,1,1,1,1029,315,0,MIX,5,8,315.0,316.0,,,,,AN,old,0
6763,6764,3,6,4,2,1,2,0,0,1,1,0,511,318,0,MIX,8,317,,,,,,,AN,new,0
6764,6765,3,6,5,2,1,4,0,0,2,1,1,418,321,0,MIX,8,3,319.0,320.0,,,,,AN,new,0
6766,6767,3,6,7,1,1,2,2,1,2,1,0,445,324,0,MIX,4,324,,,,,,,AN,old,0
6767,6768,3,6,8,2,1,8,0,0,1,1,0,812,15,1,MIX,5,6,2.0,3.0,325.0,326.0,327.0,328.0,CM,new,0
6769,6770,3,6,10,2,1,2,0,0,1,1,0,418,14,1,MIX,3,330,,,,,,,CM,new,0
6770,6771,3,6,11,2,1,2,0,0,2,1,1,596,5,1,MIX,8,331,,,,,,,CM,new,0
6771,6772,3,6,12,2,1,4,0,0,2,1,1,516,8,1,MIX,5,6,332.0,333.0,,,,,CM,new,0
6773,6774,3,6,14,1,1,4,2,3,2,1,0,474,337,0,MIX,5,3,336.0,337.0,,,,,AN,old,0
6774,6775,3,6,15,2,1,2,0,0,1,1,0,953,339,0,MIX,4,338,,,,,,,AN,new,0
6775,6776,3,6,16,2,1,2,0,0,2,1,1,438,341,0,MIX,5,340,,,,,,,AN,new,0
6777,6778,3,6,18,1,1,4,2,3,2,1,0,1879,343,0,MIX,2,8,343.0,344.0,,,,,AN,old,0
6778,6779,3,6,19,2,1,8,0,0,1,1,0,413,9,1,MIX,8,1,3.0,7.0,345.0,346.0,347.0,348.0,CM,new,0
6779,6780,3,6,20,1,1,8,8,1,2,1,0,367,5,1,MIX,7,1,2.0,5.0,349.0,350.0,351.0,352.0,CM,old,0
6780,6781,3,6,21,1,1,8,5,4,2,1,0,545,7,1,MIX,6,2,1.0,7.0,353.0,354.0,355.0,356.0,CM,old,0
6781,6782,3,6,22,1,1,4,1,4,2,0,1,931,357,0,MIX,6,2,357.0,358.0,,,,,AN,old,1
6782,6783,3,6,23,2,1,8,0,0,1,1,0,815,363,0,MIX,7,2,5.0,6.0,359.0,360.0,361.0,362.0,AN,new,0
6783,6784,3,6,24,1,1,8,8,1,1,1,1,529,8,1,MIX,3,8,1.0,7.0,364.0,365.0,366.0,367.0,CM,old,0
6784,6785,3,7,1,2,1,4,0,0,1,1,0,411,16,1,MIX,5,6,368.0,369.0,,,,,CM,new,0
6785,6786,3,7,2,2,1,8,0,0,2,1,1,411,1,1,MIX,1,5,2.0,6.0,370.0,371.0,372.0,373.0,CM,new,0
6786,6787,3,7,3,1,1,4,2,3,1,1,1,627,374,0,MIX,6,5,374.0,375.0,,,,,AN,old,0
6787,6788,3,7,4,1,1,4,2,3,1,1,1,753,8,1,MIX,8,4,376.0,377.0,,,,,CM,old,0
6788,6789,3,7,5,2,1,8,0,0,1,1,0,819,13,1,MIX,1,8,4.0,5.0,378.0,379.0,380.0,381.0,CM,new,0
6789,6790,3,7,6,1,1,8,4,5,1,0,0,468,383,0,MIX,5,7,1.0,8.0,382.0,383.0,384.0,385.0,AN,old,1
6790,6791,3,7,7,1,1,8,7,2,2,1,0,739,388,0,MIX,5,4,6.0,2.0,386.0,387.0,388.0,389.0,AN,old,0
6792,6793,3,7,9,1,1,2,1,2,1,1,1,657,6,1,MIX,6,392,,,,,,,CM,old,0
6793,6794,3,7,10,2,1,8,0,0,1,1,0,937,397,0,MIX,5,3,8.0,2.0,393.0,394.0,395.0,396.0,AN,new,0
6794,6795,3,7,11,2,1,4,0,0,1,1,0,636,16,1,MIX,3,7,398.0,399.0,,,,,CM,new,0
6795,6796,3,7,13,1,1,4,1,4,1,1,1,518,7,1,MIX,4,7,403.0,404.0,,,,,CM,old,0
6796,6797,3,7,14,1,1,4,3,2,2,1,0,536,405,0,MIX,5,2,405.0,406.0,,,,,AN,old,0
6798,6799,3,7,16,2,1,2,0,0,2,1,1,487,1,1,MIX,6,408,,,,,,,CM,new,0
6799,6800,3,7,17,1,1,2,1,2,1,1,1,631,2,1,MIX,2,409,,,,,,,CM,old,0
6800,6801,3,7,18,1,1,4,2,3,2,1,0,742,7,1,MIX,7,6,410.0,411.0,,,,,CM,old,0
6801,6802,3,7,19,1,1,4,2,3,1,0,0,593,413,0,MIX,6,5,412.0,413.0,,,,,AN,old,1
6802,6803,3,7,20,2,1,8,0,0,2,1,1,524,1,1,MIX,4,5,1.0,3.0,414.0,415.0,416.0,417.0,CM,new,0
6803,6804,3,7,21,1,1,4,1,4,1,1,1,511,6,1,MIX,6,3,418.0,419.0,,,,,CM,old,0
6804,6805,3,7,22,1,1,4,1,4,2,0,1,867,2,1,MIX,5,2,420.0,421.0,,,,,CM,old,1
6805,6806,3,7,23,2,1,8,0,0,2,1,1,770,2,1,MIX,2,3,8.0,7.0,422.0,423.0,424.0,425.0,CM,new,0
6807,6808,3,8,1,1,1,4,4,1,2,1,0,525,7,1,MIX,3,7,428.0,429.0,,,,,CM,old,0
6808,6809,3,8,2,1,1,8,3,6,1,0,0,1258,432,0,MIX,7,1,2.0,6.0,430.0,431.0,432.0,433.0,AN,old,1
6809,6810,3,8,3,1,1,2,1,2,1,1,1,556,434,0,MIX,7,434,,,,,,,AN,old,0
6810,6811,3,8,4,2,1,8,0,0,1,0,1,1558,439,0,MIX,2,7,3.0,4.0,435.0,436.0,437.0,438.0,AN,new,1
6811,6812,3,8,5,1,1,4,2,3,2,1,0,513,6,1,MIX,4,6,440.0,441.0,,,,,CM,old,0
6812,6813,3,8,6,1,1,4,2,3,2,1,0,598,2,1,MIX,2,1,442.0,443.0,,,,,CM,old,0
6813,6814,3,8,7,1,1,4,2,3,2,1,0,1254,7,1,MIX,5,7,444.0,445.0,,,,,CM,old,0
6814,6815,3,8,8,2,1,2,0,0,2,1,1,968,6,1,MIX,2,446,,,,,,,CM,new,0
6815,6816,3,8,9,2,1,2,0,0,2,1,1,628,8,1,MIX,4,447,,,,,,,CM,new,0
6816,6817,3,8,11,2,1,8,0,0,2,1,1,746,456,0,MIX,3,2,6.0,4.0,452.0,453.0,454.0,455.0,AN,new,0
6817,6818,3,8,12,2,1,8,0,0,2,1,1,1181,461,0,MIX,6,1,5.0,2.0,457.0,458.0,459.0,460.0,AN,new,0
6818,6819,3,8,13,2,1,8,0,0,1,1,0,480,14,1,MIX,2,7,8.0,3.0,462.0,463.0,464.0,465.0,CM,new,0
6819,6820,3,8,14,1,1,8,6,3,1,1,1,718,3,1,MIX,5,7,2.0,3.0,466.0,467.0,468.0,469.0,CM,old,0
6820,6821,3,8,15,2,1,2,0,0,1,1,0,436,471,0,MIX,7,470,,,,,,,AN,new,0
6821,6822,3,8,17,1,1,4,1,4,1,1,1,649,475,0,MIX,1,7,474.0,475.0,,,,,AN,old,0
6823,6824,3,8,20,1,1,2,2,1,2,1,0,466,482,0,MIX,3,482,,,,,,,AN,old,0
6824,6825,3,8,21,1,1,2,1,2,2,1,0,451,483,0,MIX,5,483,,,,,,,AN,old,0
6825,6826,3,8,22,1,1,4,2,3,1,1,1,745,485,0,MIX,8,3,484.0,485.0,,,,,AN,old,0
6826,6827,3,8,23,2,1,8,0,0,1,0,1,542,6,1,MIX,8,2,4.0,6.0,486.0,487.0,488.0,489.0,CM,new,1
6828,6829,3,9,1,2,1,2,0,0,2,1,1,493,493,0,MIX,1,492,,,,,,,AN,new,0
6829,6830,3,9,2,2,1,8,0,0,1,1,0,587,498,0,MIX,2,3,4.0,7.0,494.0,495.0,496.0,497.0,AN,new,0
6830,6831,3,9,3,1,1,2,2,1,2,0,1,487,1,1,MIX,1,499,,,,,,,CM,old,1
6831,6832,3,9,4,1,1,4,3,2,2,1,0,588,1,1,MIX,6,1,500.0,501.0,,,,,CM,old,0
6832,6833,3,9,5,1,1,2,1,2,2,1,0,600,8,1,MIX,8,502,,,,,,,CM,old,0
6833,6834,3,9,6,2,1,4,0,0,2,1,1,1336,1,1,MIX,8,6,503.0,504.0,,,,,CM,new,0
6834,6835,3,9,7,1,1,8,8,1,2,1,0,436,508,0,MIX,4,6,5.0,1.0,505.0,506.0,507.0,508.0,AN,old,0
6835,6836,3,9,8,1,1,4,1,4,1,1,1,602,3,1,MIX,6,3,509.0,510.0,,,,,CM,old,0
6836,6837,3,9,9,1,1,2,1,2,1,1,1,454,6,1,MIX,6,511,,,,,,,CM,old,0
6837,6838,3,9,10,1,1,8,6,3,2,1,0,1380,7,1,MIX,1,2,7.0,5.0,512.0,513.0,514.0,515.0,CM,old,0
6838,6839,3,9,11,2,1,4,0,0,1,1,0,645,518,0,MIX,2,1,516.0,517.0,,,,,AN,new,0
6840,6841,3,9,13,1,1,4,1,4,1,1,1,662,4,1,MIX,2,4,523.0,524.0,,,,,CM,old,0
6841,6842,3,9,14,2,1,4,0,0,2,1,1,868,5,1,MIX,8,7,525.0,526.0,,,,,CM,new,0
6842,6843,3,9,15,1,1,2,1,2,1,1,1,549,8,1,MIX,8,527,,,,,,,CM,old,0
6843,6844,3,9,16,2,1,8,0,0,2,1,1,1650,1,1,MIX,8,2,4.0,7.0,528.0,529.0,530.0,531.0,CM,new,0
6844,6845,3,9,17,1,1,8,7,2,1,1,1,721,534,0,MIX,3,2,1.0,8.0,532.0,533.0,534.0,535.0,AN,old,0
6845,6846,3,9,18,2,1,2,0,0,1,1,0,551,15,1,MIX,5,536,,,,,,,CM,new,0
6846,6847,3,9,19,1,1,2,1,2,2,1,0,628,537,0,MIX,6,537,,,,,,,AN,old,0
6847,6848,3,9,20,2,1,4,0,0,1,1,0,804,540,0,MIX,7,2,538.0,539.0,,,,,AN,new,0
6848,6849,3,9,21,2,1,4,0,0,1,1,0,540,543,0,MIX,1,4,541.0,542.0,,,,,AN,new,0
6849,6850,3,9,22,1,1,8,6,3,2,1,0,696,544,0,MIX,5,1,6.0,8.0,544.0,545.0,546.0,547.0,AN,old,0
6850,6851,3,9,23,2,1,4,0,0,2,1,1,1716,2,1,MIX,3,7,548.0,549.0,,,,,CM,new,0
6851,6852,3,9,24,2,1,8,0,0,1,1,0,657,12,1,MIX,3,8,6.0,2.0,550.0,551.0,552.0,553.0,CM,new,0
6852,6853,4,2,1,1,1,4,4,1,2,1,0,476,3,1,MIX,3,7,83.0,84.0,,,,,CM,old,0
6853,6854,4,2,2,1,1,4,2,3,2,0,1,640,85,0,MIX,1,2,85.0,86.0,,,,,AN,old,1
6854,6855,4,2,3,2,1,4,0,0,2,1,1,1120,7,1,MIX,6,7,87.0,88.0,,,,,CM,new,0
6855,6856,4,2,4,2,1,4,0,0,2,1,1,1067,8,1,MIX,5,7,89.0,90.0,,,,,CM,new,0
6857,6858,4,2,6,2,1,4,0,0,2,1,1,1513,7,1,MIX,7,1,95.0,96.0,,,,,CM,new,0
6858,6859,4,2,7,1,1,2,1,2,1,1,1,655,1,1,MIX,1,97,,,,,,,CM,old,0
6859,6860,4,2,8,2,1,2,0,0,2,1,1,825,99,0,MIX,2,98,,,,,,,AN,new,0
6860,6861,4,2,9,1,1,4,3,2,1,1,1,656,6,1,MIX,5,6,100.0,101.0,,,,,CM,old,0
6861,6862,4,2,10,2,1,4,0,0,2,1,1,716,104,0,MIX,7,5,102.0,103.0,,,,,AN,new,0
6862,6863,4,2,11,1,1,8,6,3,2,1,0,591,7,1,MIX,5,7,3.0,2.0,105.0,106.0,107.0,108.0,CM,old,0
6863,6864,4,2,12,2,1,4,0,0,2,1,1,640,111,0,MIX,7,8,109.0,110.0,,,,,AN,new,0
6864,6865,4,2,13,2,1,2,0,0,1,1,0,585,10,1,MIX,1,112,,,,,,,CM,new,0
6865,6866,4,2,14,2,1,8,0,0,2,1,1,1300,3,1,MIX,8,4,3.0,2.0,113.0,114.0,115.0,116.0,CM,new,0
6866,6867,4,2,15,2,1,2,0,0,1,1,0,849,118,0,MIX,8,117,,,,,,,AN,new,0
6867,6868,4,2,16,1,1,2,2,1,2,1,0,545,7,1,MIX,7,119,,,,,,,CM,old,0
6868,6869,4,2,17,1,1,8,7,2,2,1,0,734,6,1,MIX,7,8,2.0,6.0,120.0,121.0,122.0,123.0,CM,old,0
6869,6870,4,2,18,1,1,4,2,3,1,1,1,632,8,1,MIX,7,8,124.0,125.0,,,,,CM,old,0
6870,6871,4,2,19,2,1,8,0,0,2,1,1,607,130,0,MIX,5,8,4.0,2.0,126.0,127.0,128.0,129.0,AN,new,0
6871,6872,4,2,20,1,1,8,3,6,2,1,0,516,3,1,MIX,2,5,6.0,3.0,131.0,132.0,133.0,134.0,CM,old,0
6872,6873,4,2,21,1,1,4,3,2,2,1,0,423,136,0,MIX,8,7,135.0,136.0,,,,,AN,old,0
6873,6874,4,2,22,1,1,2,2,1,2,1,0,442,8,1,MIX,8,137,,,,,,,CM,old,0
6874,6875,4,2,23,1,1,8,5,4,1,1,1,807,139,0,MIX,3,7,4.0,6.0,138.0,139.0,140.0,141.0,AN,old,0
6875,6876,4,2,24,1,1,4,2,3,1,1,1,495,142,0,MIX,2,3,142.0,143.0,,,,,AN,old,0
6876,6877,4,3,1,1,1,2,1,2,1,1,1,401,7,1,MIX,7,144,,,,,,,CM,old,0
6877,6878,4,3,2,2,1,2,0,0,1,1,0,658,146,0,MIX,3,145,,,,,,,AN,new,0
6878,6879,4,3,3,1,1,2,2,1,2,1,0,490,147,0,MIX,1,147,,,,,,,AN,old,0
6879,6880,4,3,4,2,1,4,0,0,2,1,1,589,150,0,MIX,5,1,148.0,149.0,,,,,AN,new,0
6880,6881,4,3,5,2,1,8,0,0,1,1,0,904,15,1,MIX,3,2,8.0,4.0,151.0,152.0,153.0,154.0,CM,new,0
6881,6882,4,3,6,2,1,4,0,0,2,1,1,636,1,1,MIX,8,5,155.0,156.0,,,,,CM,new,0
6882,6883,4,3,7,1,1,8,3,6,2,1,0,1572,157,0,MIX,4,6,8.0,3.0,157.0,158.0,159.0,160.0,AN,old,0
6883,6884,4,3,8,2,1,4,0,0,2,1,1,701,4,1,MIX,5,6,161.0,162.0,,,,,CM,new,0
6884,6885,4,3,9,1,1,8,5,4,1,1,1,609,164,0,MIX,7,4,1.0,6.0,163.0,164.0,165.0,166.0,AN,old,0
6885,6886,4,3,10,1,1,2,2,1,1,1,1,428,6,1,MIX,6,167,,,,,,,CM,old,0
6886,6887,4,3,11,2,1,4,0,0,2,1,1,466,170,0,MIX,2,3,168.0,169.0,,,,,AN,new,0
6887,6888,4,3,12,1,1,8,7,2,2,1,0,637,174,0,MIX,4,6,2.0,3.0,171.0,172.0,173.0,174.0,AN,old,0
6888,6889,4,3,13,1,1,2,1,2,2,1,0,502,175,0,MIX,5,175,,,,,,,AN,old,0
6889,6890,4,3,14,2,1,4,0,0,1,0,1,889,5,1,MIX,4,1,176.0,177.0,,,,,CM,new,1
6890,6891,4,3,15,2,1,8,0,0,2,1,1,1384,2,1,MIX,1,4,5.0,6.0,178.0,179.0,180.0,181.0,CM,new,0
6891,6892,4,3,16,1,1,2,2,1,2,1,0,436,182,0,MIX,7,182,,,,,,,AN,old,0
6892,6893,4,3,17,2,1,4,0,0,2,1,1,617,4,1,MIX,3,7,183.0,184.0,,,,,CM,new,0
6893,6894,4,3,18,1,1,4,2,3,2,1,0,1015,186,0,MIX,3,4,185.0,186.0,,,,,AN,old,0
6894,6895,4,3,19,1,1,2,2,1,2,0,1,593,3,1,MIX,3,187,,,,,,,CM,old,1
6895,6896,4,3,20,1,1,2,1,2,2,1,0,796,188,0,MIX,6,188,,,,,,,AN,old,0
6896,6897,4,3,21,2,1,4,0,0,1,1,0,689,191,0,MIX,2,3,189.0,190.0,,,,,AN,new,0
6897,6898,4,3,22,2,1,2,0,0,1,1,0,906,13,1,MIX,5,192,,,,,,,CM,new,0
6898,6899,4,3,23,2,1,4,0,0,2,1,1,574,3,1,MIX,3,8,193.0,194.0,,,,,CM,new,0
6899,6900,4,3,24,2,1,4,0,0,1,1,0,623,197,0,MIX,7,6,195.0,196.0,,,,,AN,new,0
6900,6901,4,4,1,1,1,8,6,3,2,1,0,678,199,0,MIX,2,3,5.0,6.0,198.0,199.0,200.0,201.0,AN,old,0
6901,6902,4,4,2,1,1,2,1,2,2,1,0,655,1,1,MIX,1,202,,,,,,,CM,old,0
6902,6903,4,4,3,2,1,2,0,0,2,1,1,535,204,0,MIX,2,203,,,,,,,AN,new,0
6903,6904,4,4,4,2,1,8,0,0,1,1,0,785,209,0,MIX,3,2,6.0,8.0,205.0,206.0,207.0,208.0,AN,new,0
6904,6905,4,4,5,1,1,8,5,4,1,1,1,565,4,1,MIX,6,8,1.0,4.0,210.0,211.0,212.0,213.0,CM,old,0
6905,6906,4,4,6,1,1,2,2,1,1,1,1,465,2,1,MIX,2,214,,,,,,,CM,old,0
6906,6907,4,4,7,2,1,4,0,0,1,1,0,552,217,0,MIX,1,7,215.0,216.0,,,,,AN,new,0
6907,6908,4,4,8,2,1,2,0,0,2,1,1,500,219,0,MIX,7,218,,,,,,,AN,new,0
6908,6909,4,4,9,2,1,4,0,0,2,1,1,473,222,0,MIX,2,3,220.0,221.0,,,,,AN,new,0
6909,6910,4,4,10,2,1,4,0,0,1,1,0,556,225,0,MIX,4,3,223.0,224.0,,,,,AN,new,0
6910,6911,4,4,11,1,1,8,4,5,1,1,1,1089,228,0,MIX,4,7,8.0,6.0,226.0,227.0,228.0,229.0,AN,old,0
6911,6912,4,4,12,2,1,2,0,0,2,1,1,538,6,1,MIX,6,230,,,,,,,CM,new,0
6912,6913,4,4,13,2,1,2,0,0,1,1,0,630,13,1,MIX,4,231,,,,,,,CM,new,0
6913,6914,4,4,14,2,1,8,0,0,2,1,1,1470,1,1,MIX,5,7,6.0,4.0,232.0,233.0,234.0,235.0,CM,new,0
6914,6915,4,4,15,2,1,4,0,0,1,1,0,554,238,0,MIX,3,4,236.0,237.0,,,,,AN,new,0
6915,6916,4,4,16,2,1,2,0,0,1,1,0,503,240,0,MIX,2,239,,,,,,,AN,new,0
6916,6917,4,4,17,2,1,8,0,0,1,1,0,593,245,0,MIX,2,3,6.0,4.0,241.0,242.0,243.0,244.0,AN,new,0
6917,6918,4,4,18,1,1,8,2,7,1,1,1,523,8,1,MIX,1,7,2.0,8.0,246.0,247.0,248.0,249.0,CM,old,0
6918,6919,4,4,19,2,1,4,0,0,1,1,0,813,252,0,MIX,3,7,250.0,251.0,,,,,AN,new,0
6919,6920,4,4,20,1,1,4,4,1,2,1,0,548,254,0,MIX,4,8,253.0,254.0,,,,,AN,old,0
6920,6921,4,4,21,1,1,4,2,3,1,1,1,965,256,0,MIX,6,4,255.0,256.0,,,,,AN,old,0
6921,6922,4,4,22,1,1,8,1,8,1,1,1,877,260,0,MIX,4,1,2.0,8.0,257.0,258.0,259.0,260.0,AN,old,0
6922,6923,4,4,23,1,1,4,3,2,2,1,0,912,262,0,MIX,4,5,261.0,262.0,,,,,AN,old,0
6923,6924,4,4,24,2,1,8,0,0,2,1,1,762,6,1,MIX,6,1,5.0,3.0,263.0,264.0,265.0,266.0,CM,new,0
6924,6925,4,5,1,1,1,2,1,2,2,1,0,548,4,1,MIX,4,267,,,,,,,CM,old,0
6925,6926,4,5,2,1,1,8,2,7,2,1,0,590,269,0,MIX,7,4,1.0,8.0,268.0,269.0,270.0,271.0,AN,old,0
6926,6927,4,5,3,2,1,2,0,0,2,1,1,1002,4,1,MIX,2,272,,,,,,,CM,new,0
6927,6928,4,5,4,2,1,8,0,0,1,1,0,623,277,0,MIX,4,2,6.0,7.0,273.0,274.0,275.0,276.0,AN,new,0
6928,6929,4,5,5,1,1,4,4,1,1,1,1,445,5,1,MIX,5,2,278.0,279.0,,,,,CM,old,0
6929,6930,4,5,6,1,1,2,2,1,2,1,0,414,280,0,MIX,4,280,,,,,,,AN,old,0
6930,6931,4,5,7,1,1,4,4,1,2,1,0,502,6,1,MIX,3,6,281.0,282.0,,,,,CM,old,0
6931,6932,4,5,8,1,1,8,8,1,1,1,1,466,5,1,MIX,8,5,3.0,6.0,283.0,284.0,285.0,286.0,CM,old,0
6932,6933,4,5,9,1,1,2,2,1,2,1,0,371,287,0,MIX,7,287,,,,,,,AN,old,0
6933,6934,4,5,10,2,1,8,0,0,1,1,0,851,13,1,MIX,4,1,7.0,5.0,288.0,289.0,290.0,291.0,CM,new,0
6934,6935,4,5,11,1,1,4,2,3,2,1,0,1032,293,0,MIX,2,6,292.0,293.0,,,,,AN,old,0
6935,6936,4,5,12,2,1,8,0,0,2,1,1,575,298,0,MIX,8,6,1.0,5.0,294.0,295.0,296.0,297.0,AN,new,0
6936,6937,4,5,13,1,1,8,5,4,1,1,1,630,3,1,MIX,2,8,6.0,3.0,299.0,300.0,301.0,302.0,CM,old,0
6937,6938,4,5,14,2,1,8,0,0,1,0,1,800,1,1,MIX,5,6,8.0,4.0,303.0,304.0,305.0,306.0,CM,new,1
6938,6939,4,5,15,1,1,8,4,5,2,1,0,1314,307,0,MIX,5,7,3.0,2.0,307.0,308.0,309.0,310.0,AN,old,0
6939,6940,4,5,16,1,1,2,2,1,2,1,0,656,311,0,MIX,8,311,,,,,,,AN,old,0
6940,6941,4,5,17,2,1,4,0,0,2,1,1,572,314,0,MIX,6,1,312.0,313.0,,,,,AN,new,0
6941,6942,4,5,18,2,1,4,0,0,1,0,1,844,7,1,MIX,6,8,315.0,316.0,,,,,CM,new,1
6942,6943,4,5,19,2,1,2,0,0,2,1,1,622,318,0,MIX,2,317,,,,,,,AN,new,0
6943,6944,4,5,20,1,1,8,7,2,2,0,1,823,7,1,MIX,5,3,7.0,6.0,319.0,320.0,321.0,322.0,CM,old,1
6944,6945,4,5,21,1,1,8,4,5,2,1,0,743,5,1,MIX,3,6,7.0,5.0,323.0,324.0,325.0,326.0,CM,old,0
6945,6946,4,5,22,2,1,2,0,0,1,1,0,571,328,0,MIX,3,327,,,,,,,AN,new,0
6946,6947,4,5,23,1,1,2,2,1,2,1,0,472,329,0,MIX,7,329,,,,,,,AN,old,0
6947,6948,4,5,24,2,1,2,0,0,2,1,1,602,6,1,MIX,2,330,,,,,,,CM,new,0
6948,6949,4,6,1,1,1,2,1,2,2,1,0,468,1,1,MIX,1,331,,,,,,,CM,old,0
6949,6950,4,6,2,1,1,2,1,2,1,1,1,724,1,1,MIX,1,332,,,,,,,CM,old,0
6950,6951,4,6,3,1,1,8,7,2,1,1,1,585,333,0,MIX,4,8,3.0,6.0,333.0,334.0,335.0,336.0,AN,old,0
6951,6952,4,6,4,1,1,4,3,2,1,1,1,714,3,1,MIX,3,5,337.0,338.0,,,,,CM,old,0
6952,6953,4,6,5,1,1,2,2,1,1,1,1,737,339,0,MIX,5,339,,,,,,,AN,old,0
6953,6954,4,6,6,1,1,8,6,3,2,1,0,545,2,1,MIX,5,2,8.0,4.0,340.0,341.0,342.0,343.0,CM,old,0
6954,6955,4,6,7,1,1,4,3,2,2,1,0,691,345,0,MIX,3,8,344.0,345.0,,,,,AN,old,0
6955,6956,4,6,8,1,1,4,2,3,1,1,1,895,6,1,MIX,1,6,346.0,347.0,,,,,CM,old,0
6956,6957,4,6,9,1,1,2,2,1,1,1,1,478,348,0,MIX,1,348,,,,,,,AN,old,0
6957,6958,4,6,10,1,1,4,3,2,2,1,0,674,349,0,MIX,2,8,349.0,350.0,,,,,AN,old,0
6958,6959,4,6,11,1,1,4,4,1,2,1,0,544,5,1,MIX,5,3,351.0,352.0,,,,,CM,old,0
6959,6960,4,6,12,1,1,4,2,3,1,1,1,529,354,0,MIX,6,8,353.0,354.0,,,,,AN,old,0
6960,6961,4,6,13,2,1,2,0,0,2,1,1,560,8,1,MIX,8,355,,,,,,,CM,new,0
6961,6962,4,6,14,1,1,2,1,2,1,1,1,668,1,1,MIX,1,356,,,,,,,CM,old,0
6962,6963,4,6,15,1,1,2,2,1,2,1,0,500,2,1,MIX,2,357,,,,,,,CM,old,0
6963,6964,4,6,16,2,1,8,0,0,2,1,1,753,362,0,MIX,5,7,1.0,3.0,358.0,359.0,360.0,361.0,AN,new,0
6964,6965,4,6,17,1,1,8,5,4,2,1,0,533,8,1,MIX,8,3,4.0,7.0,363.0,364.0,365.0,366.0,CM,old,0
6965,6966,4,6,18,2,1,8,0,0,1,1,0,642,371,0,MIX,6,5,7.0,8.0,367.0,368.0,369.0,370.0,AN,new,0
6966,6967,4,6,19,1,1,2,1,2,2,1,0,524,372,0,MIX,6,372,,,,,,,AN,old,0
6967,6968,4,6,20,1,1,4,3,2,1,1,1,529,6,1,MIX,7,6,373.0,374.0,,,,,CM,old,0
6968,6969,4,6,21,1,1,2,2,1,1,1,1,383,375,0,MIX,6,375,,,,,,,AN,old,0
6969,6970,4,6,22,2,1,4,0,0,1,1,0,646,12,1,MIX,6,7,376.0,377.0,,,,,CM,new,0
6970,6971,4,6,23,1,1,2,2,1,1,1,1,382,1,1,MIX,1,378,,,,,,,CM,old,0
6971,6972,4,6,24,2,1,4,0,0,1,1,0,551,381,0,MIX,3,4,379.0,380.0,,,,,AN,new,0
6972,6973,4,7,1,2,1,8,0,0,2,1,1,830,6,1,MIX,4,1,7.0,2.0,382.0,383.0,384.0,385.0,CM,new,0
6973,6974,4,7,2,2,1,8,0,0,2,1,1,1004,390,0,MIX,3,5,6.0,7.0,386.0,387.0,388.0,389.0,AN,new,0
6974,6975,4,7,3,1,1,8,6,3,2,1,0,486,391,0,MIX,1,7,4.0,3.0,391.0,392.0,393.0,394.0,AN,old,0
6975,6976,4,7,4,1,1,4,2,3,1,1,1,794,2,1,MIX,2,5,395.0,396.0,,,,,CM,old,0
6976,6977,4,7,5,2,1,8,0,0,2,1,1,1082,8,1,MIX,6,5,7.0,1.0,397.0,398.0,399.0,400.0,CM,new,0
6977,6978,4,7,6,1,1,8,2,7,1,0,0,734,404,0,MIX,5,4,1.0,8.0,401.0,402.0,403.0,404.0,AN,old,1
6978,6979,4,7,7,1,1,4,3,2,2,1,0,710,8,1,MIX,6,8,405.0,406.0,,,,,CM,old,0
6979,6980,4,7,8,1,1,2,2,1,2,1,0,413,407,0,MIX,3,407,,,,,,,AN,old,0
6980,6981,4,7,9,1,1,8,2,7,2,1,0,542,7,1,MIX,2,5,8.0,7.0,408.0,409.0,410.0,411.0,CM,old,0
6981,6982,4,7,10,1,1,8,7,2,2,1,0,714,5,1,MIX,5,2,6.0,4.0,412.0,413.0,414.0,415.0,CM,old,0
6982,6983,4,7,11,1,1,8,7,2,1,1,1,475,418,0,MIX,7,1,5.0,3.0,416.0,417.0,418.0,419.0,AN,old,0
6983,6984,4,7,12,1,1,2,1,2,2,1,0,443,420,0,MIX,5,420,,,,,,,AN,old,0
6984,6985,4,7,13,1,1,8,2,7,2,1,0,761,8,1,MIX,8,3,2.0,5.0,421.0,422.0,423.0,424.0,CM,old,0
6985,6986,4,7,14,2,1,2,0,0,2,0,0,1982,15,1,MIX,4,425,,,,,,,CM,new,1
6986,6987,4,7,15,2,1,8,0,0,2,1,1,783,430,0,MIX,8,7,3.0,4.0,426.0,427.0,428.0,429.0,AN,new,0
6987,6988,4,7,16,2,1,4,0,0,1,1,0,774,433,0,MIX,1,4,431.0,432.0,,,,,AN,new,0
6988,6989,4,7,17,1,1,2,1,2,1,1,1,491,8,1,MIX,8,434,,,,,,,CM,old,0
6989,6990,4,7,18,2,1,8,0,0,1,0,1,873,8,1,MIX,3,5,8.0,7.0,435.0,436.0,437.0,438.0,CM,new,1
6990,6991,4,7,19,1,1,2,1,2,1,1,1,569,439,0,MIX,7,439,,,,,,,AN,old,0
6991,6992,4,7,20,2,1,8,0,0,1,1,0,660,10,1,MIX,6,5,1.0,7.0,440.0,441.0,442.0,443.0,CM,new,0
6992,6993,4,7,21,2,1,2,0,0,2,1,1,619,445,0,MIX,8,444,,,,,,,AN,new,0
6993,6994,4,7,22,1,1,8,6,3,1,1,1,580,448,0,MIX,1,6,4.0,5.0,446.0,447.0,448.0,449.0,AN,old,0
6994,6995,4,7,23,2,1,4,0,0,2,1,1,1061,8,1,MIX,5,2,450.0,451.0,,,,,CM,new,0
6995,6996,4,7,24,2,1,4,0,0,1,1,0,625,15,1,MIX,1,2,452.0,453.0,,,,,CM,new,0
6996,6997,4,8,1,1,1,2,2,1,2,1,0,489,454,0,MIX,3,454,,,,,,,AN,old,0
6997,6998,4,8,2,1,1,8,3,6,1,1,1,614,5,1,MIX,1,5,3.0,4.0,455.0,456.0,457.0,458.0,CM,old,0
6998,6999,4,8,3,1,1,8,5,4,1,1,1,493,2,1,MIX,7,4,3.0,2.0,459.0,460.0,461.0,462.0,CM,old,0
6999,7000,4,8,4,2,1,8,0,0,2,1,1,549,467,0,MIX,7,3,4.0,1.0,463.0,464.0,465.0,466.0,AN,new,0
7000,7001,4,8,5,2,1,4,0,0,2,0,0,1847,15,1,MIX,3,5,468.0,469.0,,,,,CM,new,1
7001,7002,4,8,6,2,1,2,0,0,2,1,1,479,2,1,MIX,6,470,,,,,,,CM,new,0
7002,7003,4,8,7,2,1,4,0,0,2,1,1,755,8,1,MIX,4,5,471.0,472.0,,,,,CM,new,0
7003,7004,4,8,8,2,1,2,0,0,1,1,0,600,10,1,MIX,5,473,,,,,,,CM,new,0
7004,7005,4,8,9,1,1,4,4,1,2,1,0,631,6,1,MIX,6,8,474.0,475.0,,,,,CM,old,0
7005,7006,4,8,10,1,1,4,4,1,2,1,0,485,1,1,MIX,4,1,476.0,477.0,,,,,CM,old,0
7006,7007,4,8,11,1,1,2,1,2,1,1,1,516,478,0,MIX,6,478,,,,,,,AN,old,0
7007,7008,4,8,12,2,1,2,0,0,2,1,1,563,480,0,MIX,6,479,,,,,,,AN,new,0
7008,7009,4,8,13,1,1,4,4,1,1,1,1,611,481,0,MIX,2,5,481.0,482.0,,,,,AN,old,0
7009,7010,4,8,14,1,1,2,1,2,2,1,0,764,483,0,MIX,2,483,,,,,,,AN,old,0
7010,7011,4,8,15,2,1,8,0,0,2,1,1,958,7,1,MIX,8,5,1.0,7.0,484.0,485.0,486.0,487.0,CM,new,0
7011,7012,4,8,16,2,1,2,0,0,1,1,0,538,11,1,MIX,3,488,,,,,,,CM,new,0
7012,7013,4,8,17,1,1,2,2,1,2,1,0,503,489,0,MIX,8,489,,,,,,,AN,old,0
7013,7014,4,8,18,2,1,8,0,0,2,1,1,790,2,1,MIX,1,8,6.0,4.0,490.0,491.0,492.0,493.0,CM,new,0
7014,7015,4,8,19,2,1,2,0,0,2,1,1,457,7,1,MIX,6,494,,,,,,,CM,new,0
7015,7016,4,8,20,1,1,8,2,7,1,1,1,1110,496,0,MIX,3,7,2.0,5.0,495.0,496.0,497.0,498.0,AN,old,0
7016,7017,4,8,21,2,1,4,0,0,2,1,1,513,5,1,MIX,4,6,499.0,500.0,,,,,CM,new,0
7017,7018,4,8,22,2,1,2,0,0,1,1,0,623,15,1,MIX,7,501,,,,,,,CM,new,0
7018,7019,4,8,23,2,1,2,0,0,2,1,1,474,3,1,MIX,3,502,,,,,,,CM,new,0
7019,7020,4,8,24,2,1,2,0,0,1,1,0,506,504,0,MIX,1,503,,,,,,,AN,new,0
7020,7021,4,9,1,2,1,8,0,0,1,1,0,750,509,0,MIX,1,8,2.0,5.0,505.0,506.0,507.0,508.0,AN,new,0
7021,7022,4,9,2,1,1,2,2,1,2,1,0,435,6,1,MIX,6,510,,,,,,,CM,old,0
7022,7023,4,9,3,1,1,4,1,4,1,1,1,1352,7,1,MIX,5,7,511.0,512.0,,,,,CM,old,0
7023,7024,4,9,4,2,1,8,0,0,1,1,0,644,517,0,MIX,1,3,6.0,2.0,513.0,514.0,515.0,516.0,AN,new,0
7024,7025,4,9,5,1,1,4,1,4,2,1,0,736,519,0,MIX,6,7,518.0,519.0,,,,,AN,old,0
7025,7026,4,9,6,2,1,8,0,0,1,1,0,883,16,1,MIX,7,8,2.0,4.0,520.0,521.0,522.0,523.0,CM,new,0
7026,7027,4,9,7,2,1,2,0,0,1,1,0,576,525,0,MIX,7,524,,,,,,,AN,new,0
7027,7028,4,9,8,1,1,8,6,3,1,1,1,635,1,1,MIX,4,8,1.0,5.0,526.0,527.0,528.0,529.0,CM,old,0
7028,7029,4,9,9,2,1,8,0,0,2,1,1,816,3,1,MIX,6,4,8.0,1.0,530.0,531.0,532.0,533.0,CM,new,0
7029,7030,4,9,10,2,1,4,0,0,2,1,1,615,536,0,MIX,3,2,534.0,535.0,,,,,AN,new,0
7030,7031,4,9,11,1,1,4,3,2,1,1,1,551,538,0,MIX,7,6,537.0,538.0,,,,,AN,old,0
7031,7032,4,9,12,1,1,4,3,2,2,1,0,665,7,1,MIX,3,7,539.0,540.0,,,,,CM,old,0
7032,7033,4,9,13,1,1,2,2,1,1,1,1,449,4,1,MIX,4,541,,,,,,,CM,old,0
7033,7034,4,9,14,2,1,2,0,0,2,1,1,769,543,0,MIX,4,542,,,,,,,AN,new,0
7034,7035,4,9,15,2,1,4,0,0,1,1,0,904,546,0,MIX,1,6,544.0,545.0,,,,,AN,new,0
7035,7036,4,9,16,1,1,4,2,3,1,1,1,970,7,1,MIX,4,7,547.0,548.0,,,,,CM,old,0
7036,7037,4,9,17,2,1,2,0,0,1,1,0,517,550,0,MIX,2,549,,,,,,,AN,new,0
7037,7038,4,9,18,1,1,4,2,3,2,1,0,712,6,1,MIX,6,3,551.0,552.0,,,,,CM,old,0
7038,7039,4,9,19,2,1,8,0,0,2,1,1,634,5,1,MIX,8,3,6.0,7.0,553.0,554.0,555.0,556.0,CM,new,0
7039,7040,4,9,20,2,1,8,0,0,1,0,1,931,5,1,MIX,2,7,4.0,8.0,557.0,558.0,559.0,560.0,CM,new,1
7040,7041,4,9,21,2,1,4,0,0,1,1,0,709,11,1,MIX,1,3,561.0,562.0,,,,,CM,new,0
7041,7042,4,9,22,1,1,4,2,3,2,1,0,943,6,1,MIX,6,4,563.0,564.0,,,,,CM,old,0
7042,7043,4,9,23,2,1,8,0,0,1,1,0,730,13,1,MIX,5,3,6.0,1.0,565.0,566.0,567.0,568.0,CM,new,0
7043,7044,4,9,24,1,1,8,4,5,1,1,1,859,571,0,MIX,4,6,7.0,8.0,569.0,570.0,571.0,572.0,AN,old,0
7045,7046,5,2,2,1,1,4,3,2,1,1,1,1077,3,1,MIX,2,3,83.0,84.0,,,,,CM,old,0
7046,7047,5,2,3,1,1,8,1,8,2,1,0,669,6,1,MIX,7,3,6.0,5.0,85.0,86.0,87.0,88.0,CM,old,0
7047,7048,5,2,4,1,1,4,1,4,2,1,0,980,89,0,MIX,3,8,89.0,90.0,,,,,AN,old,0
7048,7049,5,2,5,2,1,4,0,0,1,1,0,605,93,0,MIX,5,4,91.0,92.0,,,,,AN,new,0
7049,7050,5,2,6,2,1,4,0,0,1,1,0,734,15,1,MIX,7,8,94.0,95.0,,,,,CM,new,0
7050,7051,5,2,7,1,1,2,1,2,2,1,0,956,96,0,MIX,1,96,,,,,,,AN,old,0
7051,7052,5,2,8,1,1,2,1,2,2,1,0,978,5,1,MIX,5,97,,,,,,,CM,old,0
7052,7053,5,2,9,2,1,2,0,0,2,1,1,991,99,0,MIX,3,98,,,,,,,AN,new,0
7054,7055,5,2,11,2,1,4,0,0,1,1,0,1055,104,0,MIX,5,8,102.0,103.0,,,,,AN,new,0
7055,7056,5,2,12,2,1,8,0,0,1,1,0,951,109,0,MIX,1,2,3.0,5.0,105.0,106.0,107.0,108.0,AN,new,0
7056,7057,5,2,13,2,1,8,0,0,1,0,1,1603,1,1,MIX,8,2,1.0,4.0,110.0,111.0,112.0,113.0,CM,new,1
7057,7058,5,2,14,1,1,2,1,2,1,1,1,1014,114,0,MIX,7,114,,,,,,,AN,old,0
7058,7059,5,2,15,2,1,4,0,0,2,1,1,662,117,0,MIX,3,6,115.0,116.0,,,,,AN,new,0
7059,7060,5,2,16,1,1,4,3,2,2,1,0,1141,118,0,MIX,5,6,118.0,119.0,,,,,AN,old,0
7060,7061,5,2,17,1,1,4,2,3,1,1,1,1224,8,1,MIX,8,6,120.0,121.0,,,,,CM,old,0
7061,7062,5,2,18,1,1,2,1,2,2,1,0,900,122,0,MIX,7,122,,,,,,,AN,old,0
7062,7063,5,2,19,1,1,4,1,4,1,1,1,985,5,1,MIX,5,2,123.0,124.0,,,,,CM,old,0
7063,7064,5,2,20,2,1,4,0,0,2,1,1,1050,127,0,MIX,1,6,125.0,126.0,,,,,AN,new,0
7064,7065,5,2,21,2,1,8,0,0,1,1,0,1106,132,0,MIX,1,8,2.0,3.0,128.0,129.0,130.0,131.0,AN,new,0
7065,7066,5,2,22,2,1,8,0,0,1,1,0,1273,137,0,MIX,6,4,5.0,8.0,133.0,134.0,135.0,136.0,AN,new,0
7066,7067,5,2,23,1,1,2,2,1,2,1,0,1122,138,0,MIX,4,138,,,,,,,AN,old,0
7067,7068,5,2,24,1,1,2,2,1,2,1,0,537,139,0,MIX,4,139,,,,,,,AN,old,0
7068,7069,5,3,1,2,1,8,0,0,1,1,0,951,144,0,MIX,5,1,8.0,4.0,140.0,141.0,142.0,143.0,AN,new,0
7069,7070,5,3,2,2,1,4,0,0,1,1,0,745,147,0,MIX,1,6,145.0,146.0,,,,,AN,new,0
7071,7072,5,3,4,2,1,2,0,0,2,1,1,752,151,0,MIX,7,150,,,,,,,AN,new,0
7072,7073,5,3,5,1,1,4,1,4,2,1,0,819,152,0,MIX,1,2,152.0,153.0,,,,,AN,old,0
7073,7074,5,3,6,1,1,4,4,1,2,1,0,475,155,0,MIX,4,6,154.0,155.0,,,,,AN,old,0
7074,7075,5,3,7,1,1,2,2,1,2,1,0,764,3,1,MIX,3,156,,,,,,,CM,old,0
7075,7076,5,3,8,1,1,2,1,2,1,1,1,833,1,1,MIX,1,157,,,,,,,CM,old,0
7076,7077,5,3,9,1,1,2,1,2,1,1,1,803,8,1,MIX,8,158,,,,,,,CM,old,0
7077,7078,5,3,10,2,1,2,0,0,2,1,1,727,7,1,MIX,6,159,,,,,,,CM,new,0
7078,7079,5,3,11,1,1,8,5,4,1,1,1,1477,161,0,MIX,5,4,8.0,6.0,160.0,161.0,162.0,163.0,AN,old,0
7079,7080,5,3,12,2,1,8,0,0,1,1,0,749,168,0,MIX,1,4,6.0,8.0,164.0,165.0,166.0,167.0,AN,new,0
7080,7081,5,3,13,1,1,4,1,4,1,1,1,1095,8,1,MIX,8,7,169.0,170.0,,,,,CM,old,0
7081,7082,5,3,14,2,1,2,0,0,2,1,1,616,7,1,MIX,6,171,,,,,,,CM,new,0
7082,7083,5,3,15,2,1,8,0,0,2,1,1,1088,4,1,MIX,8,4,2.0,3.0,172.0,173.0,174.0,175.0,CM,new,0
7083,7084,5,3,16,1,1,2,1,2,1,1,1,833,176,0,MIX,2,176,,,,,,,AN,old,0
7084,7085,5,3,17,2,1,4,0,0,1,1,0,1047,14,1,MIX,1,5,177.0,178.0,,,,,CM,new,0
7085,7086,5,3,18,2,1,8,0,0,2,0,0,1384,183,0,MIX,2,3,7.0,5.0,179.0,180.0,181.0,182.0,AN,new,1
7086,7087,5,3,19,1,1,8,1,8,1,1,1,988,184,0,MIX,3,1,5.0,6.0,184.0,185.0,186.0,187.0,AN,old,0
7087,7088,5,3,20,1,1,2,1,2,1,1,1,1080,188,0,MIX,1,188,,,,,,,AN,old,0
7088,7089,5,3,21,1,1,4,4,1,2,1,0,829,4,1,MIX,5,4,189.0,190.0,,,,,CM,old,0
7089,7090,5,3,22,1,1,2,1,2,2,1,0,744,2,1,MIX,2,191,,,,,,,CM,old,0
7090,7091,5,3,23,1,1,2,2,1,2,1,0,502,5,1,MIX,5,192,,,,,,,CM,old,0
7091,7092,5,3,24,2,1,2,0,0,2,1,1,1134,4,1,MIX,3,193,,,,,,,CM,new,0
7092,7093,5,4,1,1,1,8,4,5,2,1,0,667,2,1,MIX,2,7,4.0,1.0,194.0,195.0,196.0,197.0,CM,old,0
7093,7094,5,4,2,2,1,4,0,0,2,1,1,832,200,0,MIX,7,2,198.0,199.0,,,,,AN,new,0
7094,7095,5,4,3,1,1,2,1,2,2,1,0,811,201,0,MIX,1,201,,,,,,,AN,old,0
7095,7096,5,4,4,2,1,4,0,0,1,1,0,628,204,0,MIX,3,8,202.0,203.0,,,,,AN,new,0
7096,7097,5,4,5,2,1,2,0,0,2,1,1,967,5,1,MIX,3,205,,,,,,,CM,new,0
7097,7098,5,4,6,2,1,4,0,0,2,1,1,1713,5,1,MIX,4,8,206.0,207.0,,,,,CM,new,0
7098,7099,5,4,7,2,1,2,0,0,1,1,0,1512,209,0,MIX,5,208,,,,,,,AN,new,0
7099,7100,5,4,8,2,1,4,0,0,1,1,0,756,212,0,MIX,2,4,210.0,211.0,,,,,AN,new,0
7100,7101,5,4,9,1,1,2,1,2,1,1,1,802,213,0,MIX,6,213,,,,,,,AN,old,0
7101,7102,5,4,10,1,1,8,7,2,2,1,0,1228,7,1,MIX,6,7,1.0,2.0,214.0,215.0,216.0,217.0,CM,old,0
7102,7103,5,4,11,2,1,2,0,0,2,1,1,1000,5,1,MIX,3,218,,,,,,,CM,new,0
7103,7104,5,4,12,1,1,2,1,2,2,1,0,1268,1,1,MIX,1,219,,,,,,,CM,old,0
7104,7105,5,4,13,2,1,4,0,0,2,1,1,851,222,0,MIX,8,2,220.0,221.0,,,,,AN,new,0
7106,7107,5,4,15,1,1,2,2,1,1,1,1,495,227,0,MIX,7,227,,,,,,,AN,old,0
7107,7108,5,4,16,2,1,2,0,0,2,1,1,615,229,0,MIX,1,228,,,,,,,AN,new,0
7108,7109,5,4,17,1,1,8,8,1,2,1,0,552,4,1,MIX,7,8,4.0,6.0,230.0,231.0,232.0,233.0,CM,old,0
7109,7110,5,4,18,2,1,8,0,0,1,1,0,1029,15,1,MIX,1,3,7.0,5.0,234.0,235.0,236.0,237.0,CM,new,0
7110,7111,5,4,19,2,1,4,0,0,1,1,0,1084,240,0,MIX,8,6,238.0,239.0,,,,,AN,new,0
7111,7112,5,4,20,2,1,8,0,0,2,1,1,755,245,0,MIX,7,8,2.0,4.0,241.0,242.0,243.0,244.0,AN,new,0
7112,7113,5,4,21,1,1,8,5,4,1,1,1,1039,6,1,MIX,3,6,2.0,1.0,246.0,247.0,248.0,249.0,CM,old,0
7113,7114,5,4,22,1,1,8,5,4,1,1,1,921,252,0,MIX,7,6,5.0,1.0,250.0,251.0,252.0,253.0,AN,old,0
7114,7115,5,4,23,1,1,8,1,8,2,0,1,1511,1,1,MIX,1,3,2.0,4.0,254.0,255.0,256.0,257.0,CM,old,1
7115,7116,5,4,24,1,1,8,4,5,1,1,1,1220,258,0,MIX,3,8,7.0,5.0,258.0,259.0,260.0,261.0,AN,old,0
7116,7117,5,5,1,2,1,4,0,0,2,1,1,605,264,0,MIX,4,5,262.0,263.0,,,,,AN,new,0
7117,7118,5,5,2,1,1,8,6,3,2,1,0,993,5,1,MIX,3,5,7.0,4.0,265.0,266.0,267.0,268.0,CM,old,0
7118,7119,5,5,3,1,1,8,1,8,1,1,1,996,270,0,MIX,7,2,8.0,4.0,269.0,270.0,271.0,272.0,AN,old,0
7119,7120,5,5,4,2,1,4,0,0,2,1,1,605,1,1,MIX,6,3,273.0,274.0,,,,,CM,new,0
7120,7121,5,5,5,2,1,8,0,0,1,1,0,1031,279,0,MIX,4,2,6.0,7.0,275.0,276.0,277.0,278.0,AN,new,0
7121,7122,5,5,6,1,1,4,4,1,2,1,0,903,281,0,MIX,6,1,280.0,281.0,,,,,AN,old,0
7122,7123,5,5,7,1,1,4,4,1,1,1,1,1187,1,1,MIX,1,8,282.0,283.0,,,,,CM,old,0
7123,7124,5,5,8,1,1,8,6,3,2,1,0,1143,287,0,MIX,1,6,5.0,7.0,284.0,285.0,286.0,287.0,AN,old,0
7124,7125,5,5,9,2,1,2,0,0,1,1,0,590,10,1,MIX,6,288,,,,,,,CM,new,0
7125,7126,5,5,10,2,1,4,0,0,2,1,1,1031,8,1,MIX,3,6,289.0,290.0,,,,,CM,new,0
7126,7127,5,5,11,2,1,4,0,0,1,1,0,759,10,1,MIX,8,2,291.0,292.0,,,,,CM,new,0
7128,7129,5,5,13,2,1,8,0,0,1,1,0,725,9,1,MIX,2,6,5.0,8.0,297.0,298.0,299.0,300.0,CM,new,0
7129,7130,5,5,14,1,1,2,1,2,1,1,1,1045,8,1,MIX,8,301,,,,,,,CM,old,0
7130,7131,5,5,15,2,1,2,0,0,1,1,0,647,303,0,MIX,1,302,,,,,,,AN,new,0
7131,7132,5,5,16,1,1,2,2,1,1,1,1,633,1,1,MIX,1,304,,,,,,,CM,old,0
7132,7133,5,5,17,1,1,8,1,8,2,1,0,946,307,0,MIX,7,4,5.0,6.0,305.0,306.0,307.0,308.0,AN,old,0
7133,7134,5,5,18,1,1,8,5,4,2,1,0,1144,312,0,MIX,6,1,2.0,4.0,309.0,310.0,311.0,312.0,AN,old,0
7134,7135,5,5,19,1,1,2,1,2,1,1,1,998,5,1,MIX,5,313,,,,,,,CM,old,0
7135,7136,5,5,20,1,1,8,2,7,1,1,1,769,3,1,MIX,8,4,3.0,7.0,314.0,315.0,316.0,317.0,CM,old,0
7136,7137,5,5,21,2,1,8,0,0,1,0,1,1044,4,1,MIX,5,1,7.0,2.0,318.0,319.0,320.0,321.0,CM,new,1
7137,7138,5,5,22,1,1,8,8,1,2,1,0,934,6,1,MIX,6,5,1.0,3.0,322.0,323.0,324.0,325.0,CM,old,0
7138,7139,5,5,23,2,1,8,0,0,1,1,0,731,330,0,MIX,5,2,1.0,7.0,326.0,327.0,328.0,329.0,AN,new,0
7139,7140,5,5,24,1,1,2,1,2,2,1,0,849,5,1,MIX,5,331,,,,,,,CM,old,0
7141,7142,5,6,2,2,1,2,0,0,1,1,0,1209,11,1,MIX,4,336,,,,,,,CM,new,0
7142,7143,5,6,3,1,1,2,2,1,2,1,0,525,337,0,MIX,1,337,,,,,,,AN,old,0
7143,7144,5,6,4,1,1,8,8,1,2,1,0,594,339,0,MIX,4,8,2.0,7.0,338.0,339.0,340.0,341.0,AN,old,0
7144,7145,5,6,5,1,1,2,2,1,2,1,0,758,4,1,MIX,4,342,,,,,,,CM,old,0
7145,7146,5,6,6,2,1,4,0,0,1,1,0,601,16,1,MIX,3,8,343.0,344.0,,,,,CM,new,0
7146,7147,5,6,7,2,1,8,0,0,2,1,1,579,349,0,MIX,5,1,2.0,3.0,345.0,346.0,347.0,348.0,AN,new,0
7147,7148,5,6,8,1,1,8,6,3,1,1,1,751,7,1,MIX,2,7,5.0,8.0,350.0,351.0,352.0,353.0,CM,old,0
7148,7149,5,6,9,1,1,2,2,1,2,1,0,685,354,0,MIX,6,354,,,,,,,AN,old,0
7149,7150,5,6,10,2,1,8,0,0,1,1,0,932,15,1,MIX,1,4,8.0,6.0,355.0,356.0,357.0,358.0,CM,new,0
7150,7151,5,6,11,1,1,4,3,2,2,1,0,1416,4,1,MIX,4,6,359.0,360.0,,,,,CM,old,0
7151,7152,5,6,12,1,1,4,4,1,2,1,0,593,361,0,MIX,1,8,361.0,362.0,,,,,AN,old,0
7152,7153,5,6,13,2,1,2,0,0,2,1,1,845,364,0,MIX,6,363,,,,,,,AN,new,0
7153,7154,5,6,14,2,1,4,0,0,2,1,1,868,5,1,MIX,2,8,365.0,366.0,,,,,CM,new,0
7154,7155,5,6,15,1,1,4,2,3,2,1,0,883,368,0,MIX,5,7,367.0,368.0,,,,,AN,old,0
7155,7156,5,6,16,2,1,2,0,0,1,1,0,1035,370,0,MIX,4,369,,,,,,,AN,new,0
7156,7157,5,6,17,2,1,8,0,0,1,1,0,587,375,0,MIX,6,8,7.0,4.0,371.0,372.0,373.0,374.0,AN,new,0
7157,7158,5,6,18,1,1,2,1,2,1,1,1,864,5,1,MIX,5,376,,,,,,,CM,old,0
7158,7159,5,6,19,1,1,8,6,3,1,1,1,729,379,0,MIX,8,5,6.0,4.0,377.0,378.0,379.0,380.0,AN,old,0
7159,7160,5,6,20,1,1,2,2,1,2,1,0,617,1,1,MIX,1,381,,,,,,,CM,old,0
7160,7161,5,6,21,1,1,8,3,6,2,1,0,809,384,0,MIX,5,8,7.0,2.0,382.0,383.0,384.0,385.0,AN,old,0
7161,7162,5,6,22,2,1,2,0,0,2,1,1,964,387,0,MIX,8,386,,,,,,,AN,new,0
7162,7163,5,6,23,1,1,8,6,3,2,1,0,1073,388,0,MIX,7,1,2.0,4.0,388.0,389.0,390.0,391.0,AN,old,0
7163,7164,5,6,24,1,1,2,2,1,1,1,1,1994,3,1,MIX,3,392,,,,,,,CM,old,0
7164,7165,5,7,1,2,1,2,0,0,1,1,0,1731,394,0,MIX,2,393,,,,,,,AN,new,0
7165,7166,5,7,2,1,1,8,5,4,2,1,0,944,3,1,MIX,8,5,3.0,4.0,395.0,396.0,397.0,398.0,CM,old,0
7166,7167,5,7,3,1,1,8,3,6,2,1,0,1231,4,1,MIX,3,6,8.0,4.0,399.0,400.0,401.0,402.0,CM,old,0
7167,7168,5,7,4,2,1,2,0,0,2,1,1,969,7,1,MIX,8,403,,,,,,,CM,new,0
7168,7169,5,7,5,2,1,2,0,0,2,1,1,806,405,0,MIX,6,404,,,,,,,AN,new,0
7169,7170,5,7,6,1,1,2,2,1,1,1,1,714,2,1,MIX,2,406,,,,,,,CM,old,0
7170,7171,5,7,7,1,1,8,7,2,1,1,1,863,408,0,MIX,7,8,3.0,5.0,407.0,408.0,409.0,410.0,AN,old,0
7171,7172,5,7,8,1,1,2,1,2,2,1,0,641,4,1,MIX,4,411,,,,,,,CM,old,0
7172,7173,5,7,9,2,1,2,0,0,1,1,0,491,11,1,MIX,5,412,,,,,,,CM,new,0
7173,7174,5,7,10,2,1,4,0,0,1,1,0,542,415,0,MIX,1,2,413.0,414.0,,,,,AN,new,0
7174,7175,5,7,11,2,1,4,0,0,1,1,0,610,16,1,MIX,2,3,416.0,417.0,,,,,CM,new,0
7175,7176,5,7,12,2,1,2,0,0,1,1,0,438,13,1,MIX,7,418,,,,,,,CM,new,0
7176,7177,5,7,13,2,1,4,0,0,1,1,0,509,421,0,MIX,6,8,419.0,420.0,,,,,AN,new,0
7177,7178,5,7,14,1,1,4,2,3,1,0,0,897,2,1,MIX,7,2,422.0,423.0,,,,,CM,old,1
7178,7179,5,7,15,2,1,2,0,0,1,1,0,488,14,1,MIX,6,424,,,,,,,CM,new,0
7179,7180,5,7,16,1,1,2,1,2,1,1,1,465,1,1,MIX,1,425,,,,,,,CM,old,0
7180,7181,5,7,17,1,1,2,1,2,2,1,0,715,426,0,MIX,6,426,,,,,,,AN,old,0
7181,7182,5,7,18,2,1,2,0,0,2,1,1,553,8,1,MIX,6,427,,,,,,,CM,new,0
7182,7183,5,7,19,2,1,4,0,0,2,1,1,666,430,0,MIX,7,1,428.0,429.0,,,,,AN,new,0
7183,7184,5,7,20,1,1,8,6,3,2,1,0,723,5,1,MIX,4,2,5.0,8.0,431.0,432.0,433.0,434.0,CM,old,0
7184,7185,5,7,21,1,1,4,3,2,1,1,1,599,2,1,MIX,2,5,435.0,436.0,,,,,CM,old,0
7185,7186,5,7,22,2,1,4,0,0,1,1,0,640,439,0,MIX,3,7,437.0,438.0,,,,,AN,new,0
7186,7187,5,7,23,1,1,4,1,4,1,1,1,688,2,1,MIX,4,2,440.0,441.0,,,,,CM,old,0
7187,7188,5,7,24,2,1,4,0,0,1,1,0,613,444,0,MIX,6,8,442.0,443.0,,,,,AN,new,0
7188,7189,5,8,1,1,1,4,3,2,1,1,1,1033,446,0,MIX,7,6,445.0,446.0,,,,,AN,old,0
7189,7190,5,8,2,2,1,2,0,0,2,1,1,539,4,1,MIX,3,447,,,,,,,CM,new,0
7190,7191,5,8,3,2,1,4,0,0,2,1,1,565,450,0,MIX,4,3,448.0,449.0,,,,,AN,new,0
7191,7192,5,8,4,1,1,8,5,4,1,1,1,616,8,1,MIX,8,2,3.0,6.0,451.0,452.0,453.0,454.0,CM,old,0
7192,7193,5,8,5,2,1,4,0,0,1,1,0,784,457,0,MIX,7,8,455.0,456.0,,,,,AN,new,0
7193,7194,5,8,6,2,1,8,0,0,2,1,1,634,462,0,MIX,6,8,7.0,5.0,458.0,459.0,460.0,461.0,AN,new,0
7194,7195,5,8,7,1,1,8,4,5,2,1,0,620,466,0,MIX,6,5,8.0,4.0,463.0,464.0,465.0,466.0,AN,old,0
7195,7196,5,8,8,1,1,2,2,1,1,1,1,424,6,1,MIX,6,467,,,,,,,CM,old,0
7196,7197,5,8,9,2,1,8,0,0,1,1,0,1081,472,0,MIX,5,8,7.0,6.0,468.0,469.0,470.0,471.0,AN,new,0
7197,7198,5,8,10,1,1,4,4,1,1,1,1,407,473,0,MIX,2,4,473.0,474.0,,,,,AN,old,0
7198,7199,5,8,11,2,1,8,0,0,2,1,1,793,3,1,MIX,3,6,7.0,1.0,475.0,476.0,477.0,478.0,CM,new,0
7199,7200,5,8,12,1,1,2,2,1,1,1,1,678,4,1,MIX,4,479,,,,,,,CM,old,0
7200,7201,5,8,13,2,1,8,0,0,2,1,1,757,484,0,MIX,3,8,6.0,7.0,480.0,481.0,482.0,483.0,AN,new,0
7201,7202,5,8,14,2,1,2,0,0,2,1,1,890,5,1,MIX,7,485,,,,,,,CM,new,0
7202,7203,5,8,15,1,1,8,2,7,2,1,0,825,2,1,MIX,3,2,6.0,1.0,486.0,487.0,488.0,489.0,CM,old,0
7203,7204,5,8,16,1,1,4,1,4,2,1,0,1201,490,0,MIX,4,7,490.0,491.0,,,,,AN,old,0
7204,7205,5,8,17,2,1,8,0,0,2,1,1,1476,496,0,MIX,7,5,3.0,1.0,492.0,493.0,494.0,495.0,AN,new,0
7205,7206,5,8,18,1,1,4,2,3,2,1,0,994,1,1,MIX,1,5,497.0,498.0,,,,,CM,old,0
7206,7207,5,8,19,1,1,4,1,4,1,1,1,1028,500,0,MIX,5,4,499.0,500.0,,,,,AN,old,0
7207,7208,5,8,20,2,1,8,0,0,1,1,0,956,505,0,MIX,8,6,7.0,3.0,501.0,502.0,503.0,504.0,AN,new,0
7208,7209,5,8,21,1,1,2,1,2,1,1,1,603,4,1,MIX,4,506,,,,,,,CM,old,0
7209,7210,5,8,22,2,1,2,0,0,1,1,0,1527,14,1,MIX,2,507,,,,,,,CM,new,0
7210,7211,5,8,23,1,1,4,4,1,1,1,1,683,4,1,MIX,4,1,508.0,509.0,,,,,CM,old,0
7211,7212,5,8,24,2,1,8,0,0,1,1,0,746,514,0,MIX,1,2,6.0,8.0,510.0,511.0,512.0,513.0,AN,new,0
7212,7213,5,9,1,2,1,2,0,0,2,1,1,640,3,1,MIX,7,515,,,,,,,CM,new,0
7213,7214,5,9,2,1,1,2,1,2,2,1,0,763,6,1,MIX,6,516,,,,,,,CM,old,0
7214,7215,5,9,3,1,1,4,3,2,1,1,1,733,518,0,MIX,6,3,517.0,518.0,,,,,AN,old,0
7215,7216,5,9,4,2,1,8,0,0,2,1,1,916,6,1,MIX,1,7,4.0,5.0,519.0,520.0,521.0,522.0,CM,new,0
7216,7217,5,9,5,2,1,4,0,0,2,1,1,945,8,1,MIX,4,1,523.0,524.0,,,,,CM,new,0
7217,7218,5,9,6,1,1,8,3,6,2,1,0,846,528,0,MIX,1,8,5.0,4.0,525.0,526.0,527.0,528.0,AN,old,0
7220,7221,5,9,9,1,1,8,2,7,1,1,1,835,534,0,MIX,4,1,3.0,8.0,532.0,533.0,534.0,535.0,AN,old,0
7221,7222,5,9,10,2,1,2,0,0,1,1,0,517,15,1,MIX,5,536,,,,,,,CM,new,0
7222,7223,5,9,11,2,1,4,0,0,1,1,0,641,539,0,MIX,5,6,537.0,538.0,,,,,AN,new,0
7223,7224,5,9,12,2,1,8,0,0,2,1,1,1242,6,1,MIX,7,2,4.0,6.0,540.0,541.0,542.0,543.0,CM,new,0
7225,7226,5,9,14,2,1,2,0,0,1,1,0,1189,15,1,MIX,1,546,,,,,,,CM,new,0
7226,7227,5,9,15,1,1,4,3,2,2,1,0,742,1,1,MIX,2,1,547.0,548.0,,,,,CM,old,0
7227,7228,5,9,16,2,1,4,0,0,2,1,1,1122,7,1,MIX,6,8,549.0,550.0,,,,,CM,new,0
7228,7229,5,9,17,2,1,8,0,0,2,1,1,975,555,0,MIX,3,6,7.0,8.0,551.0,552.0,553.0,554.0,AN,new,0
7229,7230,5,9,18,2,1,4,0,0,2,1,1,584,558,0,MIX,3,4,556.0,557.0,,,,,AN,new,0
7230,7231,5,9,19,1,1,2,2,1,2,1,0,757,7,1,MIX,7,559,,,,,,,CM,old,0
7231,7232,5,9,20,1,1,4,3,2,2,1,0,688,561,0,MIX,7,3,560.0,561.0,,,,,AN,old,0
7232,7233,5,9,21,1,1,4,1,4,1,1,1,677,562,0,MIX,3,5,562.0,563.0,,,,,AN,old,0
7233,7234,5,9,22,2,1,4,0,0,1,1,0,1107,10,1,MIX,7,4,564.0,565.0,,,,,CM,new,0
7234,7235,5,9,23,2,1,2,0,0,1,1,0,946,567,0,MIX,1,566,,,,,,,AN,new,0
7235,7236,5,9,24,1,1,8,5,4,2,1,0,816,1,1,MIX,3,8,5.0,1.0,568.0,569.0,570.0,571.0,CM,old,0
7236,7237,6,2,1,2,1,2,0,0,1,1,0,780,69,0,MIX,7,68,,,,,,,AN,new,0
7237,7238,6,2,2,2,1,8,0,0,2,0,0,894,74,0,MIX,2,4,8.0,6.0,70.0,71.0,72.0,73.0,AN,new,1
7238,7239,6,2,3,2,1,8,0,0,1,1,0,828,10,1,MIX,8,4,1.0,5.0,75.0,76.0,77.0,78.0,CM,new,0
7239,7240,6,2,4,2,1,4,0,0,2,1,1,644,81,0,MIX,1,6,79.0,80.0,,,,,AN,new,0
7240,7241,6,2,5,2,1,4,0,0,2,0,0,802,84,0,MIX,6,4,82.0,83.0,,,,,AN,new,1
7241,7242,6,2,6,2,1,2,0,0,2,1,1,854,86,0,MIX,6,85,,,,,,,AN,new,0
7242,7243,6,2,7,2,1,4,0,0,1,1,0,619,89,0,MIX,6,3,87.0,88.0,,,,,AN,new,0
7243,7244,6,2,8,2,1,4,0,0,2,1,1,682,92,0,MIX,2,8,90.0,91.0,,,,,AN,new,0
7244,7245,6,2,9,2,1,2,0,0,1,1,0,1234,94,0,MIX,1,93,,,,,,,AN,new,0
7245,7246,6,2,10,2,1,4,0,0,1,1,0,824,15,1,MIX,3,6,95.0,96.0,,,,,CM,new,0
7246,7247,6,2,11,1,1,8,3,6,2,1,0,633,5,1,MIX,4,8,5.0,1.0,97.0,98.0,99.0,100.0,CM,old,0
7247,7248,6,2,12,1,1,8,6,3,2,1,0,658,3,1,MIX,3,8,4.0,1.0,101.0,102.0,103.0,104.0,CM,old,0
7248,7249,6,2,13,1,1,8,4,5,2,0,1,840,107,0,MIX,7,5,1.0,2.0,105.0,106.0,107.0,108.0,AN,old,1
7249,7250,6,2,14,1,1,4,1,4,2,0,1,799,8,1,MIX,7,8,109.0,110.0,,,,,CM,old,1
7250,7251,6,2,15,1,1,2,1,2,2,1,0,818,8,1,MIX,8,111,,,,,,,CM,old,0
7251,7252,6,2,16,2,1,8,0,0,2,1,1,1043,7,1,MIX,2,8,3.0,1.0,112.0,113.0,114.0,115.0,CM,new,0
7252,7253,6,2,17,2,1,8,0,0,2,0,0,1148,10,1,MIX,2,7,1.0,6.0,116.0,117.0,118.0,119.0,CM,new,1
7253,7254,6,2,18,1,1,2,1,2,1,1,1,673,120,0,MIX,1,120,,,,,,,AN,old,0
7254,7255,6,2,19,2,1,2,0,0,2,1,1,506,2,1,MIX,5,121,,,,,,,CM,new,0
7255,7256,6,2,20,1,1,2,1,2,2,1,0,585,8,1,MIX,8,122,,,,,,,CM,old,0
7256,7257,6,2,21,1,1,8,4,5,1,1,1,596,6,1,MIX,7,6,2.0,3.0,123.0,124.0,125.0,126.0,CM,old,0
7257,7258,6,2,22,1,1,2,1,2,2,1,0,944,3,1,MIX,3,127,,,,,,,CM,old,0
7258,7259,6,2,23,1,1,2,2,1,2,1,0,877,128,0,MIX,2,128,,,,,,,AN,old,0
7259,7260,6,2,24,2,1,8,0,0,1,1,0,714,133,0,MIX,4,8,1.0,3.0,129.0,130.0,131.0,132.0,AN,new,0
7260,7261,6,3,1,2,1,2,0,0,1,1,0,784,135,0,MIX,3,134,,,,,,,AN,new,0
7261,7262,6,3,2,2,1,2,0,0,1,1,0,580,137,0,MIX,1,136,,,,,,,AN,new,0
7262,7263,6,3,3,1,1,2,2,1,2,0,1,416,4,1,MIX,4,138,,,,,,,CM,old,1
7263,7264,6,3,4,1,1,4,1,4,1,0,0,823,3,1,MIX,3,6,139.0,140.0,,,,,CM,old,1
7264,7265,6,3,5,1,1,8,6,3,1,1,1,760,8,1,MIX,8,7,3.0,5.0,141.0,142.0,143.0,144.0,CM,old,0
7265,7266,6,3,6,2,1,2,0,0,2,1,1,733,146,0,MIX,8,145,,,,,,,AN,new,0
7266,7267,6,3,7,2,1,2,0,0,2,1,1,819,148,0,MIX,7,147,,,,,,,AN,new,0
7267,7268,6,3,8,1,1,4,3,2,1,1,1,715,150,0,MIX,5,3,149.0,150.0,,,,,AN,old,0
7268,7269,6,3,9,1,1,2,1,2,1,1,1,401,151,0,MIX,7,151,,,,,,,AN,old,0
7269,7270,6,3,10,2,1,8,0,0,2,0,0,642,16,1,MIX,7,8,1.0,3.0,152.0,153.0,154.0,155.0,CM,new,1
7270,7271,6,3,11,2,1,2,0,0,1,1,0,636,157,0,MIX,2,156,,,,,,,AN,new,0
7271,7272,6,3,12,2,1,8,0,0,2,0,0,1142,11,1,MIX,7,6,2.0,4.0,158.0,159.0,160.0,161.0,CM,new,1
7272,7273,6,3,13,1,1,4,1,4,1,0,0,896,162,0,MIX,8,7,162.0,163.0,,,,,AN,old,1
7273,7274,6,3,14,1,1,2,1,2,1,1,1,655,2,1,MIX,2,164,,,,,,,CM,old,0
7274,7275,6,3,15,1,1,8,1,8,1,1,1,680,6,1,MIX,6,8,1.0,4.0,165.0,166.0,167.0,168.0,CM,old,0
7275,7276,6,3,16,2,1,2,0,0,1,1,0,784,15,1,MIX,3,169,,,,,,,CM,new,0
7276,7277,6,3,17,2,1,2,0,0,2,1,1,581,171,0,MIX,2,170,,,,,,,AN,new,0
7277,7278,6,3,18,2,1,4,0,0,1,1,0,629,11,1,MIX,5,3,172.0,173.0,,,,,CM,new,0
7278,7279,6,3,19,2,1,8,0,0,1,1,0,1021,178,0,MIX,2,7,1.0,6.0,174.0,175.0,176.0,177.0,AN,new,0
7279,7280,6,3,20,2,1,8,0,0,2,1,1,709,1,1,MIX,4,3,8.0,6.0,179.0,180.0,181.0,182.0,CM,new,0
7280,7281,6,3,21,1,1,8,6,3,1,1,1,587,8,1,MIX,2,5,4.0,8.0,183.0,184.0,185.0,186.0,CM,old,0
7281,7282,6,3,22,1,1,2,1,2,2,1,0,775,187,0,MIX,7,187,,,,,,,AN,old,0
7282,7283,6,3,23,1,1,8,8,1,2,1,0,569,188,0,MIX,6,2,4.0,7.0,188.0,189.0,190.0,191.0,AN,old,0
7283,7284,6,3,24,2,1,4,0,0,1,1,0,652,194,0,MIX,3,2,192.0,193.0,,,,,AN,new,0
7284,7285,6,4,1,1,1,8,2,7,1,1,1,794,5,1,MIX,8,3,5.0,2.0,195.0,196.0,197.0,198.0,CM,old,0
7285,7286,6,4,2,1,1,8,5,4,2,1,0,680,7,1,MIX,7,5,2.0,3.0,199.0,200.0,201.0,202.0,CM,old,0
7286,7287,6,4,3,2,1,2,0,0,2,1,1,1936,3,1,MIX,6,203,,,,,,,CM,new,0
7287,7288,6,4,4,1,1,4,2,3,2,1,0,619,7,1,MIX,5,7,204.0,205.0,,,,,CM,old,0
7288,7289,6,4,5,2,1,2,0,0,2,1,1,838,207,0,MIX,2,206,,,,,,,AN,new,0
7289,7290,6,4,6,1,1,2,1,2,2,1,0,856,208,0,MIX,7,208,,,,,,,AN,old,0
7290,7291,6,4,7,2,1,8,0,0,2,1,1,631,213,0,MIX,1,4,8.0,6.0,209.0,210.0,211.0,212.0,AN,new,0
7291,7292,6,4,8,1,1,8,3,6,1,1,1,1120,8,1,MIX,8,3,6.0,5.0,214.0,215.0,216.0,217.0,CM,old,0
7292,7293,6,4,9,1,1,8,6,3,1,0,0,869,218,0,MIX,6,1,3.0,4.0,218.0,219.0,220.0,221.0,AN,old,1
7293,7294,6,4,10,2,1,2,0,0,2,1,1,1781,223,0,MIX,5,222,,,,,,,AN,new,0
7294,7295,6,4,11,1,1,2,2,1,2,1,0,1361,4,1,MIX,4,224,,,,,,,CM,old,0
7295,7296,6,4,12,2,1,8,0,0,2,0,0,813,14,1,MIX,3,6,4.0,8.0,225.0,226.0,227.0,228.0,CM,new,1
7296,7297,6,4,13,1,1,4,3,2,2,1,0,706,1,1,MIX,8,1,229.0,230.0,,,,,CM,old,0
7297,7298,6,4,14,2,1,4,0,0,2,1,1,717,4,1,MIX,5,2,231.0,232.0,,,,,CM,new,0
7298,7299,6,4,15,2,1,8,0,0,1,0,1,851,4,1,MIX,6,3,8.0,5.0,233.0,234.0,235.0,236.0,CM,new,1
7299,7300,6,4,16,1,1,8,8,1,2,1,0,529,7,1,MIX,4,2,6.0,7.0,237.0,238.0,239.0,240.0,CM,old,0
7300,7301,6,4,17,1,1,4,3,2,2,1,0,613,8,1,MIX,8,4,241.0,242.0,,,,,CM,old,0
7301,7302,6,4,18,2,1,2,0,0,1,1,0,607,244,0,MIX,2,243,,,,,,,AN,new,0
7302,7303,6,4,19,1,1,4,3,2,1,1,1,815,246,0,MIX,3,6,245.0,246.0,,,,,AN,old,0
7303,7304,6,4,20,1,1,2,1,2,1,1,1,546,247,0,MIX,7,247,,,,,,,AN,old,0
7304,7305,6,4,21,1,1,2,1,2,1,1,1,640,7,1,MIX,7,248,,,,,,,CM,old,0
7305,7306,6,4,22,1,1,2,2,1,1,1,1,538,3,1,MIX,3,249,,,,,,,CM,old,0
7306,7307,6,4,23,1,1,8,4,5,1,1,1,583,251,0,MIX,6,1,4.0,2.0,250.0,251.0,252.0,253.0,AN,old,0
7307,7308,6,4,24,1,1,2,1,2,2,1,0,547,254,0,MIX,5,254,,,,,,,AN,old,0
7308,7309,6,5,1,1,1,2,2,1,2,1,0,360,255,0,MIX,1,255,,,,,,,AN,old,0
7309,7310,6,5,2,1,1,2,2,1,2,1,0,413,256,0,MIX,3,256,,,,,,,AN,old,0
7310,7311,6,5,3,1,1,4,1,4,1,0,0,676,7,1,MIX,7,1,257.0,258.0,,,,,CM,old,1
7311,7312,6,5,4,2,1,4,0,0,2,0,0,658,261,0,MIX,2,6,259.0,260.0,,,,,AN,new,1
7312,7313,6,5,5,1,1,4,4,1,1,1,1,1072,262,0,MIX,1,4,262.0,263.0,,,,,AN,old,0
7313,7314,6,5,6,2,1,2,0,0,2,1,1,1049,4,1,MIX,1,264,,,,,,,CM,new,0
7314,7315,6,5,7,2,1,8,0,0,2,1,1,961,1,1,MIX,4,8,2.0,1.0,265.0,266.0,267.0,268.0,CM,new,0
7315,7316,6,5,8,2,1,8,0,0,2,1,1,652,3,1,MIX,8,5,3.0,6.0,269.0,270.0,271.0,272.0,CM,new,0
7316,7317,6,5,9,1,1,4,2,3,1,0,0,651,273,0,MIX,8,4,273.0,274.0,,,,,AN,old,1
7317,7318,6,5,10,2,1,8,0,0,2,1,1,706,3,1,MIX,2,1,7.0,6.0,275.0,276.0,277.0,278.0,CM,new,0
7318,7319,6,5,11,2,1,8,0,0,1,1,0,887,12,1,MIX,5,6,4.0,1.0,279.0,280.0,281.0,282.0,CM,new,0
7319,7320,6,5,12,1,1,8,2,7,2,0,1,1045,4,1,MIX,4,6,8.0,5.0,283.0,284.0,285.0,286.0,CM,old,1
7320,7321,6,5,13,1,1,8,5,4,1,0,0,911,7,1,MIX,1,4,7.0,3.0,287.0,288.0,289.0,290.0,CM,old,1
7321,7322,6,5,14,1,1,2,2,1,2,1,0,430,291,0,MIX,7,291,,,,,,,AN,old,0
7322,7323,6,5,15,2,1,8,0,0,1,1,0,749,9,1,MIX,5,3,7.0,2.0,292.0,293.0,294.0,295.0,CM,new,0
7323,7324,6,5,16,1,1,2,2,1,2,0,1,420,296,0,MIX,2,296,,,,,,,AN,old,1
7324,7325,6,5,17,1,1,2,1,2,1,1,1,742,6,1,MIX,6,297,,,,,,,CM,old,0
7325,7326,6,5,18,1,1,8,6,3,2,1,0,843,300,0,MIX,1,5,2.0,6.0,298.0,299.0,300.0,301.0,AN,old,0
7327,7328,6,5,20,1,1,8,3,6,2,1,0,608,6,1,MIX,5,1,8.0,6.0,303.0,304.0,305.0,306.0,CM,old,0
7328,7329,6,5,21,2,1,2,0,0,1,1,0,699,13,1,MIX,3,307,,,,,,,CM,new,0
7329,7330,6,5,22,2,1,4,0,0,2,1,1,680,6,1,MIX,7,4,308.0,309.0,,,,,CM,new,0
7330,7331,6,5,23,1,1,2,1,2,1,1,1,545,8,1,MIX,8,310,,,,,,,CM,old,0
7331,7332,6,5,24,2,1,8,0,0,2,1,1,732,8,1,MIX,1,4,2.0,6.0,311.0,312.0,313.0,314.0,CM,new,0
7332,7333,6,6,1,2,1,8,0,0,1,1,0,646,319,0,MIX,7,4,6.0,1.0,315.0,316.0,317.0,318.0,AN,new,0
7333,7334,6,6,2,2,1,8,0,0,1,0,1,668,5,1,MIX,7,3,1.0,2.0,320.0,321.0,322.0,323.0,CM,new,1
7334,7335,6,6,3,2,1,8,0,0,1,1,0,915,328,0,MIX,1,4,2.0,7.0,324.0,325.0,326.0,327.0,AN,new,0
7335,7336,6,6,4,1,1,2,2,1,2,0,1,770,329,0,MIX,2,329,,,,,,,AN,old,1
7336,7337,6,6,5,2,1,2,0,0,2,1,1,644,331,0,MIX,1,330,,,,,,,AN,new,0
7337,7338,6,6,6,1,1,8,7,2,1,1,1,622,5,1,MIX,2,5,6.0,1.0,332.0,333.0,334.0,335.0,CM,old,0
7338,7339,6,6,7,2,1,8,0,0,2,1,1,1607,2,1,MIX,1,3,5.0,4.0,336.0,337.0,338.0,339.0,CM,new,0
7339,7340,6,6,8,1,1,4,2,3,2,1,0,592,2,1,MIX,7,2,340.0,341.0,,,,,CM,old,0
7340,7341,6,6,9,2,1,4,0,0,1,1,0,1936,13,1,MIX,1,8,342.0,343.0,,,,,CM,new,0
7341,7342,6,6,10,2,1,2,0,0,1,0,1,852,345,0,MIX,6,344,,,,,,,AN,new,1
7342,7343,6,6,11,2,1,4,0,0,2,1,1,1577,2,1,MIX,4,2,346.0,347.0,,,,,CM,new,0
7344,7345,6,6,13,1,1,8,6,3,1,0,0,1018,356,0,MIX,7,2,1.0,6.0,353.0,354.0,355.0,356.0,AN,old,1
7345,7346,6,6,14,1,1,2,1,2,1,1,1,1253,3,1,MIX,3,357,,,,,,,CM,old,0
7346,7347,6,6,15,1,1,2,1,2,1,1,1,966,358,0,MIX,7,358,,,,,,,AN,old,0
7347,7348,6,6,16,1,1,4,2,3,1,0,0,1192,359,0,MIX,8,6,359.0,360.0,,,,,AN,old,1
7348,7349,6,6,17,2,1,8,0,0,2,1,1,1691,5,1,MIX,4,1,2.0,7.0,361.0,362.0,363.0,364.0,CM,new,0
7349,7350,6,6,18,2,1,4,0,0,1,1,0,1520,11,1,MIX,6,2,365.0,366.0,,,,,CM,new,0
7350,7351,6,6,19,1,1,8,6,3,1,1,1,598,3,1,MIX,4,6,3.0,7.0,367.0,368.0,369.0,370.0,CM,old,0
7351,7352,6,6,20,2,1,8,0,0,2,0,0,1952,14,1,MIX,4,1,6.0,2.0,371.0,372.0,373.0,374.0,CM,new,1
7352,7353,6,6,21,2,1,2,0,0,2,1,1,1253,376,0,MIX,2,375,,,,,,,AN,new,0
7353,7354,6,6,22,2,1,4,0,0,1,1,0,1051,11,1,MIX,6,8,377.0,378.0,,,,,CM,new,0
7354,7355,6,6,23,1,1,2,1,2,1,1,1,1044,8,1,MIX,8,379,,,,,,,CM,old,0
7355,7356,6,6,24,1,1,2,2,1,1,1,1,558,380,0,MIX,3,380,,,,,,,AN,old,0
7356,7357,6,7,1,2,1,4,0,0,2,1,1,609,7,1,MIX,5,6,381.0,382.0,,,,,CM,new,0
7357,7358,6,7,2,1,1,2,1,2,2,1,0,540,6,1,MIX,6,383,,,,,,,CM,old,0
7358,7359,6,7,3,2,1,8,0,0,1,1,0,807,10,1,MIX,3,5,8.0,4.0,384.0,385.0,386.0,387.0,CM,new,0
7359,7360,6,7,4,1,1,8,3,6,1,0,0,793,388,0,MIX,6,2,1.0,7.0,388.0,389.0,390.0,391.0,AN,old,1
7360,7361,6,7,5,2,1,4,0,0,1,1,0,865,394,0,MIX,2,7,392.0,393.0,,,,,AN,new,0
7361,7362,6,7,6,2,1,8,0,0,2,1,1,657,399,0,MIX,8,2,1.0,3.0,395.0,396.0,397.0,398.0,AN,new,0
7362,7363,6,7,7,1,1,8,7,2,2,1,0,696,6,1,MIX,2,6,3.0,8.0,400.0,401.0,402.0,403.0,CM,old,0
7363,7364,6,7,8,2,1,4,0,0,1,0,1,1733,4,1,MIX,3,4,404.0,405.0,,,,,CM,new,1
7365,7366,6,7,10,2,1,4,0,0,2,1,1,977,410,0,MIX,7,4,408.0,409.0,,,,,AN,new,0
7366,7367,6,7,11,1,1,4,3,2,1,1,1,675,8,1,MIX,2,8,411.0,412.0,,,,,CM,old,0
7367,7368,6,7,12,1,1,4,4,1,2,0,1,544,413,0,MIX,8,5,413.0,414.0,,,,,AN,old,1
7368,7369,6,7,13,1,1,8,1,8,1,1,1,1101,417,0,MIX,7,2,1.0,3.0,415.0,416.0,417.0,418.0,AN,old,0
7370,7371,6,7,15,1,1,4,2,3,1,1,1,1421,4,1,MIX,5,4,421.0,422.0,,,,,CM,old,0
7371,7372,6,7,16,1,1,8,2,7,2,1,0,855,8,1,MIX,5,6,7.0,8.0,423.0,424.0,425.0,426.0,CM,old,0
7373,7374,6,7,18,1,1,8,3,6,2,1,0,933,6,1,MIX,5,2,6.0,1.0,431.0,432.0,433.0,434.0,CM,old,0
7374,7375,6,7,19,1,1,8,2,7,1,0,0,1393,438,0,MIX,7,6,2.0,1.0,435.0,436.0,437.0,438.0,AN,old,1
7375,7376,6,7,20,2,1,2,0,0,1,1,0,1725,11,1,MIX,7,439,,,,,,,CM,new,0
7376,7377,6,7,22,1,1,8,5,4,1,0,0,971,447,0,MIX,7,1,2.0,8.0,445.0,446.0,447.0,448.0,AN,old,1
7379,7380,6,8,1,2,1,4,0,0,2,1,1,614,1,1,MIX,1,8,452.0,453.0,,,,,CM,new,0
7380,7381,6,8,2,2,1,8,0,0,2,1,1,543,7,1,MIX,2,3,5.0,4.0,454.0,455.0,456.0,457.0,CM,new,0
7381,7382,6,8,3,1,1,2,2,1,2,1,0,557,458,0,MIX,4,458,,,,,,,AN,old,0
7382,7383,6,8,4,1,1,8,4,5,2,1,0,596,6,1,MIX,3,2,6.0,5.0,459.0,460.0,461.0,462.0,CM,old,0
7383,7384,6,8,5,1,1,8,5,4,2,0,1,734,464,0,MIX,2,5,1.0,7.0,463.0,464.0,465.0,466.0,AN,old,1
7384,7385,6,8,6,1,1,2,2,1,1,1,1,436,2,1,MIX,2,467,,,,,,,CM,old,0
7385,7386,6,8,7,1,1,8,5,4,2,0,1,661,468,0,MIX,3,6,1.0,5.0,468.0,469.0,470.0,471.0,AN,old,1
7386,7387,6,8,9,1,1,4,1,4,2,1,0,1209,475,0,MIX,7,3,475.0,476.0,,,,,AN,old,0
7387,7388,6,8,10,1,1,8,8,1,1,1,1,1002,8,1,MIX,4,8,3.0,2.0,477.0,478.0,479.0,480.0,CM,old,0
7388,7389,6,8,11,2,1,4,0,0,1,1,0,1049,483,0,MIX,7,8,481.0,482.0,,,,,AN,new,0
7389,7390,6,8,12,1,1,2,2,1,2,1,0,818,1,1,MIX,1,484,,,,,,,CM,old,0
7390,7391,6,8,13,1,1,8,1,8,2,0,1,1172,8,1,MIX,5,2,8.0,4.0,485.0,486.0,487.0,488.0,CM,old,1
7391,7392,6,8,14,2,1,4,0,0,2,1,1,1197,491,0,MIX,2,7,489.0,490.0,,,,,AN,new,0
7392,7393,6,8,15,1,1,2,1,2,1,1,1,752,8,1,MIX,8,492,,,,,,,CM,old,0
7393,7394,6,8,16,1,1,4,4,1,1,1,1,587,494,0,MIX,8,7,493.0,494.0,,,,,AN,old,0
7394,7395,6,8,17,1,1,8,2,7,1,0,0,1429,498,0,MIX,4,6,1.0,7.0,495.0,496.0,497.0,498.0,AN,old,1
7395,7396,6,8,18,2,1,8,0,0,2,1,1,1822,4,1,MIX,1,4,5.0,7.0,499.0,500.0,501.0,502.0,CM,new,0
7396,7397,6,8,19,2,1,2,0,0,1,1,0,649,504,0,MIX,6,503,,,,,,,AN,new,0
7397,7398,6,8,20,1,1,4,3,2,2,1,0,775,506,0,MIX,6,1,505.0,506.0,,,,,AN,old,0
7398,7399,6,8,21,1,1,8,1,8,2,0,1,938,2,1,MIX,4,1,8.0,2.0,507.0,508.0,509.0,510.0,CM,old,1
7399,7400,6,8,22,1,1,2,1,2,1,1,1,1193,511,0,MIX,2,511,,,,,,,AN,old,0
7400,7401,6,8,23,1,1,2,1,2,2,1,0,1213,4,1,MIX,4,512,,,,,,,CM,old,0
7401,7402,6,8,24,2,1,4,0,0,2,1,1,1380,5,1,MIX,6,5,513.0,514.0,,,,,CM,new,0
7402,7403,6,9,1,2,1,4,0,0,1,1,0,1072,13,1,MIX,6,3,515.0,516.0,,,,,CM,new,0
7403,7404,6,9,2,2,1,2,0,0,2,1,1,808,518,0,MIX,4,517,,,,,,,AN,new,0
7404,7405,6,9,3,1,1,2,1,2,1,0,0,907,5,1,MIX,5,519,,,,,,,CM,old,1
7405,7406,6,9,4,1,1,8,2,7,2,1,0,634,1,1,MIX,5,1,7.0,3.0,520.0,521.0,522.0,523.0,CM,old,0
7406,7407,6,9,5,1,1,8,8,1,2,1,0,482,7,1,MIX,5,4,6.0,7.0,524.0,525.0,526.0,527.0,CM,old,0
7409,7410,6,9,8,2,1,8,0,0,2,1,1,1400,540,0,MIX,1,2,8.0,4.0,536.0,537.0,538.0,539.0,AN,new,0
7410,7411,6,9,9,1,1,4,4,1,2,1,0,745,541,0,MIX,1,5,541.0,542.0,,,,,AN,old,0
7411,7412,6,9,10,1,1,2,1,2,2,1,0,607,6,1,MIX,6,543,,,,,,,CM,old,0
7412,7413,6,9,11,1,1,2,2,1,1,1,1,522,544,0,MIX,2,544,,,,,,,AN,old,0
7413,7414,6,9,12,2,1,2,0,0,2,1,1,1255,546,0,MIX,6,545,,,,,,,AN,new,0
7414,7415,6,9,13,2,1,8,0,0,2,1,1,546,551,0,MIX,7,3,8.0,4.0,547.0,548.0,549.0,550.0,AN,new,0
7415,7416,6,9,14,1,1,4,3,2,1,1,1,501,552,0,MIX,6,1,552.0,553.0,,,,,AN,old,0
7416,7417,6,9,15,2,1,4,0,0,2,1,1,648,556,0,MIX,1,6,554.0,555.0,,,,,AN,new,0
7417,7418,6,9,16,1,1,2,2,1,1,1,1,657,7,1,MIX,7,557,,,,,,,CM,old,0
7418,7419,6,9,17,1,1,2,1,2,1,1,1,539,5,1,MIX,5,558,,,,,,,CM,old,0
7419,7420,6,9,18,1,1,2,1,2,1,1,1,632,7,1,MIX,7,559,,,,,,,CM,old,0
7420,7421,6,9,19,2,1,2,0,0,2,1,1,530,5,1,MIX,3,560,,,,,,,CM,new,0
7421,7422,6,9,20,2,1,4,0,0,2,0,0,884,563,0,MIX,7,2,561.0,562.0,,,,,AN,new,1
7422,7423,6,9,21,1,1,4,4,1,2,1,0,585,8,1,MIX,6,8,564.0,565.0,,,,,CM,old,0
7423,7424,6,9,22,1,1,4,4,1,2,0,1,1034,3,1,MIX,7,3,566.0,567.0,,,,,CM,old,1
7424,7425,6,9,23,2,1,8,0,0,2,1,1,740,7,1,MIX,2,7,5.0,3.0,568.0,569.0,570.0,571.0,CM,new,0
7425,7426,6,9,24,2,1,8,0,0,1,1,0,917,12,1,MIX,1,4,2.0,8.0,572.0,573.0,574.0,575.0,CM,new,0
7426,7427,7,2,1,1,1,8,3,6,2,0,1,968,1,1,MIX,6,4,1.0,3.0,77.0,78.0,79.0,80.0,CM,old,1
7427,7428,7,2,2,1,1,4,3,2,1,1,1,745,82,0,MIX,5,8,81.0,82.0,,,,,AN,old,0
7428,7429,7,2,3,2,1,4,0,0,2,1,1,739,8,1,MIX,1,5,83.0,84.0,,,,,CM,new,0
7429,7430,7,2,4,1,1,2,1,2,2,1,0,568,3,1,MIX,3,85,,,,,,,CM,old,0
7430,7431,7,2,5,2,1,4,0,0,1,1,0,727,88,0,MIX,7,1,86.0,87.0,,,,,AN,new,0
7431,7432,7,2,6,1,1,2,2,1,1,1,1,862,5,1,MIX,5,89,,,,,,,CM,old,0
7432,7433,7,2,7,2,1,4,0,0,2,0,0,772,14,1,MIX,3,5,90.0,91.0,,,,,CM,new,1
7433,7434,7,2,8,1,1,4,4,1,2,1,0,973,1,1,MIX,5,1,92.0,93.0,,,,,CM,old,0
7434,7435,7,2,9,2,1,2,0,0,2,1,1,649,95,0,MIX,4,94,,,,,,,AN,new,0
7435,7436,7,2,10,1,1,2,2,1,2,1,0,418,6,1,MIX,6,96,,,,,,,CM,old,0
7436,7437,7,2,11,1,1,4,3,2,1,1,1,601,3,1,MIX,8,3,97.0,98.0,,,,,CM,old,0
7437,7438,7,2,12,2,1,8,0,0,1,1,0,673,103,0,MIX,5,8,2.0,7.0,99.0,100.0,101.0,102.0,AN,new,0
7438,7439,7,2,13,2,1,8,0,0,1,1,0,614,108,0,MIX,1,4,2.0,8.0,104.0,105.0,106.0,107.0,AN,new,0
7439,7440,7,2,14,1,1,4,4,1,2,1,0,581,2,1,MIX,2,8,109.0,110.0,,,,,CM,old,0
7440,7441,7,2,15,2,1,4,0,0,2,1,1,613,113,0,MIX,3,6,111.0,112.0,,,,,AN,new,0
7441,7442,7,2,16,1,1,2,1,2,2,1,0,1264,114,0,MIX,2,114,,,,,,,AN,old,0
7442,7443,7,2,17,1,1,2,2,1,2,1,0,416,3,1,MIX,3,115,,,,,,,CM,old,0
7443,7444,7,2,18,2,1,4,0,0,1,1,0,536,9,1,MIX,7,6,116.0,117.0,,,,,CM,new,0
7444,7445,7,2,19,1,1,8,5,4,2,1,0,1013,121,0,MIX,8,6,2.0,5.0,118.0,119.0,120.0,121.0,AN,old,0
7445,7446,7,2,20,2,1,2,0,0,1,1,0,543,123,0,MIX,7,122,,,,,,,AN,new,0
7446,7447,7,2,21,1,1,2,1,2,2,0,1,733,124,0,MIX,8,124,,,,,,,AN,old,1
7447,7448,7,2,22,2,1,4,0,0,1,1,0,616,11,1,MIX,5,6,125.0,126.0,,,,,CM,new,0
7448,7449,7,2,23,2,1,8,0,0,2,1,1,608,131,0,MIX,5,7,6.0,8.0,127.0,128.0,129.0,130.0,AN,new,0
7449,7450,7,2,24,1,1,4,3,2,2,1,0,1039,2,1,MIX,2,8,132.0,133.0,,,,,CM,old,0
7450,7451,7,3,1,1,1,8,1,8,1,1,1,842,136,0,MIX,5,8,2.0,6.0,134.0,135.0,136.0,137.0,AN,old,0
7451,7452,7,3,2,2,1,8,0,0,2,1,1,794,1,1,MIX,3,2,5.0,1.0,138.0,139.0,140.0,141.0,CM,new,0
7452,7453,7,3,3,2,1,2,0,0,2,1,1,702,6,1,MIX,5,142,,,,,,,CM,new,0
7453,7454,7,3,4,1,1,8,5,4,1,1,1,755,1,1,MIX,3,1,2.0,7.0,143.0,144.0,145.0,146.0,CM,old,0
7454,7455,7,3,5,1,1,8,2,7,2,1,0,679,6,1,MIX,4,6,3.0,5.0,147.0,148.0,149.0,150.0,CM,old,0
7455,7456,7,3,6,1,1,8,4,5,2,1,0,748,7,1,MIX,4,1,7.0,3.0,151.0,152.0,153.0,154.0,CM,old,0
7456,7457,7,3,7,2,1,8,0,0,1,1,0,592,11,1,MIX,3,7,1.0,6.0,155.0,156.0,157.0,158.0,CM,new,0
7457,7458,7,3,8,2,1,8,0,0,1,1,0,952,14,1,MIX,2,8,4.0,3.0,159.0,160.0,161.0,162.0,CM,new,0
7458,7459,7,3,9,1,1,4,4,1,1,1,1,649,2,1,MIX,1,2,163.0,164.0,,,,,CM,old,0
7459,7460,7,3,10,2,1,8,0,0,1,1,0,576,169,0,MIX,8,3,5.0,1.0,165.0,166.0,167.0,168.0,AN,new,0
7460,7461,7,3,11,2,1,8,0,0,1,1,0,634,174,0,MIX,8,5,2.0,3.0,170.0,171.0,172.0,173.0,AN,new,0
7461,7462,7,3,12,1,1,2,1,2,2,1,0,548,2,1,MIX,2,175,,,,,,,CM,old,0
7462,7463,7,3,13,2,1,4,0,0,1,1,0,582,16,1,MIX,7,2,176.0,177.0,,,,,CM,new,0
7463,7464,7,3,14,1,1,2,1,2,1,1,1,432,178,0,MIX,7,178,,,,,,,AN,old,0
7464,7465,7,3,15,1,1,4,4,1,1,1,1,390,179,0,MIX,6,2,179.0,180.0,,,,,AN,old,0
7465,7466,7,3,16,2,1,2,0,0,1,1,0,954,182,0,MIX,7,181,,,,,,,AN,new,0
7466,7467,7,3,17,1,1,2,2,1,2,1,0,581,4,1,MIX,4,183,,,,,,,CM,old,0
7467,7468,7,3,18,1,1,2,1,2,1,1,1,545,8,1,MIX,8,184,,,,,,,CM,old,0
7468,7469,7,3,19,2,1,4,0,0,1,1,0,691,187,0,MIX,1,2,185.0,186.0,,,,,AN,new,0
7469,7470,7,3,20,1,1,2,2,1,1,1,1,379,188,0,MIX,6,188,,,,,,,AN,old,0
7470,7471,7,3,21,1,1,8,1,8,1,1,1,652,1,1,MIX,1,6,4.0,7.0,189.0,190.0,191.0,192.0,CM,old,0
7471,7472,7,3,22,2,1,2,0,0,1,1,0,869,194,0,MIX,6,193,,,,,,,AN,new,0
7472,7473,7,3,23,2,1,4,0,0,1,0,1,650,6,1,MIX,4,3,195.0,196.0,,,,,CM,new,1
7473,7474,7,3,24,1,1,4,1,4,1,1,1,664,8,1,MIX,8,7,197.0,198.0,,,,,CM,old,0
7474,7475,7,4,1,1,1,8,2,7,2,1,0,922,2,1,MIX,3,7,6.0,2.0,199.0,200.0,201.0,202.0,CM,old,0
7475,7476,7,4,2,2,1,2,0,0,1,1,0,617,15,1,MIX,2,203,,,,,,,CM,new,0
7476,7477,7,4,3,2,1,4,0,0,1,1,0,696,16,1,MIX,4,6,204.0,205.0,,,,,CM,new,0
7477,7478,7,4,4,1,1,8,6,3,2,1,0,733,208,0,MIX,6,7,1.0,2.0,206.0,207.0,208.0,209.0,AN,old,0
7478,7479,7,4,5,1,1,4,4,1,1,1,1,358,211,0,MIX,4,3,210.0,211.0,,,,,AN,old,0
7479,7480,7,4,6,1,1,2,1,2,2,1,0,635,6,1,MIX,6,212,,,,,,,CM,old,0
7480,7481,7,4,7,1,1,4,4,1,1,1,1,329,214,0,MIX,6,5,213.0,214.0,,,,,AN,old,0
7481,7482,7,4,8,1,1,2,2,1,2,1,0,352,215,0,MIX,5,215,,,,,,,AN,old,0
7482,7483,7,4,9,1,1,2,1,2,2,1,0,597,216,0,MIX,6,216,,,,,,,AN,old,0
7483,7484,7,4,10,1,1,8,7,2,1,1,1,478,218,0,MIX,1,2,4.0,7.0,217.0,218.0,219.0,220.0,AN,old,0
7484,7485,7,4,11,2,1,8,0,0,1,0,1,494,5,1,MIX,8,6,5.0,7.0,221.0,222.0,223.0,224.0,CM,new,1
7485,7486,7,4,12,2,1,8,0,0,2,0,0,651,13,1,MIX,4,1,8.0,7.0,225.0,226.0,227.0,228.0,CM,new,1
7486,7487,7,4,13,2,1,4,0,0,1,1,0,633,15,1,MIX,1,5,229.0,230.0,,,,,CM,new,0
7487,7488,7,4,14,1,1,4,1,4,2,1,0,631,231,0,MIX,5,2,231.0,232.0,,,,,AN,old,0
7488,7489,7,4,15,2,1,4,0,0,2,1,1,582,235,0,MIX,8,5,233.0,234.0,,,,,AN,new,0
7489,7490,7,4,16,2,1,8,0,0,2,1,1,543,240,0,MIX,7,6,8.0,1.0,236.0,237.0,238.0,239.0,AN,new,0
7490,7491,7,4,17,2,1,4,0,0,2,1,1,559,243,0,MIX,1,4,241.0,242.0,,,,,AN,new,0
7491,7492,7,4,18,2,1,4,0,0,1,1,0,481,246,0,MIX,4,8,244.0,245.0,,,,,AN,new,0
7492,7493,7,4,19,2,1,4,0,0,1,1,0,548,249,0,MIX,8,3,247.0,248.0,,,,,AN,new,0
7493,7494,7,4,20,1,1,2,2,1,2,1,0,562,6,1,MIX,6,250,,,,,,,CM,old,0
7494,7495,7,4,21,2,1,4,0,0,1,1,0,515,253,0,MIX,8,3,251.0,252.0,,,,,AN,new,0
7495,7496,7,4,22,2,1,2,0,0,1,1,0,433,255,0,MIX,7,254,,,,,,,AN,new,0
7496,7497,7,4,23,1,1,8,2,7,1,1,1,705,257,0,MIX,8,1,2.0,6.0,256.0,257.0,258.0,259.0,AN,old,0
7497,7498,7,4,24,2,1,4,0,0,2,1,1,477,1,1,MIX,6,8,260.0,261.0,,,,,CM,new,0
7498,7499,7,5,1,1,1,4,4,1,1,1,1,377,1,1,MIX,3,1,262.0,263.0,,,,,CM,old,0
7499,7500,7,5,2,1,1,2,1,2,1,1,1,589,6,1,MIX,6,264,,,,,,,CM,old,0
7500,7501,7,5,3,2,1,2,0,0,1,1,0,505,13,1,MIX,5,265,,,,,,,CM,new,0
7501,7502,7,5,4,1,1,4,2,3,1,1,1,413,266,0,MIX,6,2,266.0,267.0,,,,,AN,old,0
7502,7503,7,5,5,2,1,4,0,0,1,1,0,548,270,0,MIX,8,7,268.0,269.0,,,,,AN,new,0
7503,7504,7,5,6,2,1,4,0,0,1,1,0,469,15,1,MIX,5,7,271.0,272.0,,,,,CM,new,0
7504,7505,7,5,7,2,1,8,0,0,2,1,1,499,277,0,MIX,1,4,3.0,2.0,273.0,274.0,275.0,276.0,AN,new,0
7505,7506,7,5,8,2,1,8,0,0,1,1,0,511,282,0,MIX,6,4,8.0,5.0,278.0,279.0,280.0,281.0,AN,new,0
7506,7507,7,5,9,2,1,2,0,0,1,1,0,463,13,1,MIX,2,283,,,,,,,CM,new,0
7507,7508,7,5,10,2,1,8,0,0,1,1,0,493,14,1,MIX,7,3,2.0,1.0,284.0,285.0,286.0,287.0,CM,new,0
7508,7509,7,5,11,2,1,4,0,0,2,1,1,530,290,0,MIX,1,8,288.0,289.0,,,,,AN,new,0
7509,7510,7,5,12,2,1,8,0,0,2,1,1,878,3,1,MIX,2,6,3.0,8.0,291.0,292.0,293.0,294.0,CM,new,0
7510,7511,7,5,13,2,1,4,0,0,1,1,0,483,297,0,MIX,4,7,295.0,296.0,,,,,AN,new,0
7511,7512,7,5,14,1,1,2,1,2,2,1,0,612,298,0,MIX,7,298,,,,,,,AN,old,0
7512,7513,7,5,15,2,1,2,0,0,1,1,0,463,15,1,MIX,2,299,,,,,,,CM,new,0
7513,7514,7,5,16,1,1,4,2,3,1,1,1,516,2,1,MIX,7,2,300.0,301.0,,,,,CM,old,0
7514,7515,7,5,17,1,1,8,4,5,1,1,1,577,303,0,MIX,7,2,3.0,8.0,302.0,303.0,304.0,305.0,AN,old,0
7515,7516,7,5,18,2,1,8,0,0,1,1,0,571,310,0,MIX,2,4,6.0,5.0,306.0,307.0,308.0,309.0,AN,new,0
7516,7517,7,5,19,2,1,4,0,0,2,1,1,603,313,0,MIX,3,8,311.0,312.0,,,,,AN,new,0
7517,7518,7,5,20,1,1,8,8,1,1,1,1,416,5,1,MIX,3,5,1.0,4.0,314.0,315.0,316.0,317.0,CM,old,0
7518,7519,7,5,21,1,1,2,2,1,2,1,0,418,1,1,MIX,1,318,,,,,,,CM,old,0
7519,7520,7,5,22,2,1,8,0,0,2,1,1,495,323,0,MIX,2,7,5.0,3.0,319.0,320.0,321.0,322.0,AN,new,0
7520,7521,7,5,23,2,1,2,0,0,1,1,0,477,325,0,MIX,6,324,,,,,,,AN,new,0
7521,7522,7,5,24,1,1,2,1,2,2,1,0,590,2,1,MIX,2,326,,,,,,,CM,old,0
7522,7523,7,6,1,1,1,2,2,1,2,1,0,446,327,0,MIX,1,327,,,,,,,AN,old,0
7523,7524,7,6,2,2,1,8,0,0,2,1,1,606,4,1,MIX,2,5,8.0,1.0,328.0,329.0,330.0,331.0,CM,new,0
7524,7525,7,6,3,1,1,8,4,5,1,1,1,565,333,0,MIX,5,6,7.0,8.0,332.0,333.0,334.0,335.0,AN,old,0
7525,7526,7,6,4,1,1,8,8,1,1,1,1,415,339,0,MIX,6,5,4.0,3.0,336.0,337.0,338.0,339.0,AN,old,0
7526,7527,7,6,5,1,1,4,3,2,2,1,0,678,340,0,MIX,3,5,340.0,341.0,,,,,AN,old,0
7527,7528,7,6,6,2,1,2,0,0,1,1,0,447,15,1,MIX,7,342,,,,,,,CM,new,0
7528,7529,7,6,7,2,1,8,0,0,2,1,1,701,347,0,MIX,6,2,3.0,5.0,343.0,344.0,345.0,346.0,AN,new,0
7529,7530,7,6,8,2,1,4,0,0,1,1,0,585,12,1,MIX,1,5,348.0,349.0,,,,,CM,new,0
7530,7531,7,6,9,2,1,8,0,0,2,1,1,609,5,1,MIX,1,5,6.0,3.0,350.0,351.0,352.0,353.0,CM,new,0
7531,7532,7,6,10,1,1,2,2,1,2,1,0,444,354,0,MIX,1,354,,,,,,,AN,old,0
7532,7533,7,6,11,2,1,2,0,0,1,1,0,413,14,1,MIX,1,355,,,,,,,CM,new,0
7533,7534,7,6,12,2,1,2,0,0,2,1,1,480,7,1,MIX,1,356,,,,,,,CM,new,0
7534,7535,7,6,13,1,1,2,1,2,1,1,1,432,5,1,MIX,5,357,,,,,,,CM,old,0
7535,7536,7,6,14,2,1,2,0,0,2,1,1,386,359,0,MIX,2,358,,,,,,,AN,new,0
7536,7537,7,6,15,1,1,2,1,2,1,0,0,565,8,1,MIX,8,360,,,,,,,CM,old,1
7537,7538,7,6,16,1,1,8,6,3,1,1,1,560,1,1,MIX,1,4,7.0,6.0,361.0,362.0,363.0,364.0,CM,old,0
7538,7539,7,6,17,1,1,4,4,1,2,1,0,353,365,0,MIX,1,2,365.0,366.0,,,,,AN,old,0
7539,7540,7,6,18,2,1,8,0,0,2,1,1,531,371,0,MIX,5,8,3.0,2.0,367.0,368.0,369.0,370.0,AN,new,0
7540,7541,7,6,19,2,1,2,0,0,2,1,1,529,373,0,MIX,6,372,,,,,,,AN,new,0
7541,7542,7,6,20,2,1,4,0,0,2,1,1,581,8,1,MIX,4,5,374.0,375.0,,,,,CM,new,0
7542,7543,7,6,21,2,1,8,0,0,2,1,1,590,380,0,MIX,3,6,1.0,7.0,376.0,377.0,378.0,379.0,AN,new,0
7543,7544,7,6,22,2,1,2,0,0,2,1,1,538,2,1,MIX,8,381,,,,,,,CM,new,0
7544,7545,7,6,23,1,1,8,4,5,1,0,0,726,8,1,MIX,2,5,7.0,8.0,382.0,383.0,384.0,385.0,CM,old,1
7545,7546,7,6,24,1,1,2,1,2,1,1,1,524,3,1,MIX,3,386,,,,,,,CM,old,0
7546,7547,7,7,1,2,1,4,0,0,1,1,0,502,389,0,MIX,8,3,387.0,388.0,,,,,AN,new,0
7547,7548,7,7,2,1,1,2,1,2,2,0,1,597,5,1,MIX,5,390,,,,,,,CM,old,1
7548,7549,7,7,3,1,1,2,1,2,1,1,1,528,2,1,MIX,2,391,,,,,,,CM,old,0
7549,7550,7,7,4,2,1,4,0,0,1,1,0,531,394,0,MIX,5,3,392.0,393.0,,,,,AN,new,0
7550,7551,7,7,5,1,1,2,2,1,1,1,1,385,8,1,MIX,8,395,,,,,,,CM,old,0
7551,7552,7,7,6,1,1,8,1,8,1,1,1,562,399,0,MIX,2,7,5.0,6.0,396.0,397.0,398.0,399.0,AN,old,0
7552,7553,7,7,7,1,1,4,4,1,1,1,1,388,400,0,MIX,3,4,400.0,401.0,,,,,AN,old,0
7553,7554,7,7,8,1,1,8,5,4,1,1,1,518,1,1,MIX,7,2,3.0,1.0,402.0,403.0,404.0,405.0,CM,old,0
7554,7555,7,7,9,2,1,4,0,0,1,1,0,665,408,0,MIX,2,1,406.0,407.0,,,,,AN,new,0
7555,7556,7,7,10,1,1,4,3,2,1,1,1,646,7,1,MIX,7,1,409.0,410.0,,,,,CM,old,0
7556,7557,7,7,11,1,1,8,8,1,1,1,1,477,7,1,MIX,5,3,6.0,7.0,411.0,412.0,413.0,414.0,CM,old,0
7557,7558,7,7,12,2,1,4,0,0,2,1,1,545,417,0,MIX,7,4,415.0,416.0,,,,,AN,new,0
7558,7559,7,7,13,1,1,4,1,4,1,0,0,612,418,0,MIX,2,7,418.0,419.0,,,,,AN,old,1
7559,7560,7,7,14,1,1,4,4,1,1,1,1,340,2,1,MIX,3,2,420.0,421.0,,,,,CM,old,0
7560,7561,7,7,15,1,1,8,2,7,1,1,1,536,2,1,MIX,3,8,2.0,7.0,422.0,423.0,424.0,425.0,CM,old,0
7561,7562,7,7,16,1,1,2,1,2,2,1,0,582,426,0,MIX,2,426,,,,,,,AN,old,0
7562,7563,7,7,17,1,1,2,1,2,2,1,0,370,427,0,MIX,1,427,,,,,,,AN,old,0
7563,7564,7,7,18,2,1,2,0,0,1,1,0,679,12,1,MIX,5,428,,,,,,,CM,new,0
7564,7565,7,7,19,2,1,8,0,0,1,1,0,830,10,1,MIX,8,4,7.0,2.0,429.0,430.0,431.0,432.0,CM,new,0
7565,7566,7,7,20,2,1,2,0,0,2,1,1,432,434,0,MIX,3,433,,,,,,,AN,new,0
7566,7567,7,7,21,2,1,2,0,0,2,1,1,498,4,1,MIX,4,435,,,,,,,CM,new,0
7567,7568,7,7,22,1,1,4,2,3,2,1,0,598,437,0,MIX,2,8,436.0,437.0,,,,,AN,old,0
7568,7569,7,7,23,1,1,2,1,2,1,1,1,497,438,0,MIX,5,438,,,,,,,AN,old,0
7569,7570,7,7,24,2,1,4,0,0,2,1,1,515,441,0,MIX,2,8,439.0,440.0,,,,,AN,new,0
7570,7571,7,8,1,2,1,8,0,0,1,1,0,632,446,0,MIX,7,3,4.0,2.0,442.0,443.0,444.0,445.0,AN,new,0
7571,7572,7,8,2,2,1,8,0,0,2,1,1,429,451,0,MIX,1,6,3.0,4.0,447.0,448.0,449.0,450.0,AN,new,0
7572,7573,7,8,3,1,1,8,8,1,2,1,0,429,6,1,MIX,6,2,4.0,5.0,452.0,453.0,454.0,455.0,CM,old,0
7573,7574,7,8,4,2,1,2,0,0,1,1,0,464,457,0,MIX,2,456,,,,,,,AN,new,0
7574,7575,7,8,5,1,1,8,8,1,2,1,0,398,459,0,MIX,8,6,7.0,2.0,458.0,459.0,460.0,461.0,AN,old,0
7575,7576,7,8,6,1,1,2,1,2,2,1,0,433,462,0,MIX,7,462,,,,,,,AN,old,0
7576,7577,7,8,7,2,1,8,0,0,1,1,0,561,467,0,MIX,3,4,2.0,8.0,463.0,464.0,465.0,466.0,AN,new,0
7577,7578,7,8,8,1,1,8,8,1,1,1,1,347,471,0,MIX,8,4,6.0,3.0,468.0,469.0,470.0,471.0,AN,old,0
7578,7579,7,8,9,2,1,2,0,0,2,1,1,592,3,1,MIX,2,472,,,,,,,CM,new,0
7579,7580,7,8,10,2,1,4,0,0,1,1,0,800,10,1,MIX,1,2,473.0,474.0,,,,,CM,new,0
7580,7581,7,8,11,2,1,4,0,0,2,1,1,504,8,1,MIX,4,1,475.0,476.0,,,,,CM,new,0
7581,7582,7,8,12,2,1,8,0,0,2,1,1,933,481,0,MIX,6,8,4.0,2.0,477.0,478.0,479.0,480.0,AN,new,0
7582,7583,7,8,13,2,1,4,0,0,1,1,0,391,484,0,MIX,7,8,482.0,483.0,,,,,AN,new,0
7583,7584,7,8,14,1,1,4,3,2,1,0,0,400,2,1,MIX,2,3,485.0,486.0,,,,,CM,old,1
7584,7585,7,8,15,2,1,4,0,0,1,1,0,501,489,0,MIX,4,3,487.0,488.0,,,,,AN,new,0
7585,7586,7,8,16,2,1,8,0,0,2,1,1,482,1,1,MIX,2,4,8.0,7.0,490.0,491.0,492.0,493.0,CM,new,0
7586,7587,7,8,17,2,1,2,0,0,2,1,1,514,2,1,MIX,7,494,,,,,,,CM,new,0
7587,7588,7,8,18,2,1,8,0,0,2,1,1,622,7,1,MIX,6,7,2.0,3.0,495.0,496.0,497.0,498.0,CM,new,0
7588,7589,7,8,19,1,1,4,1,4,2,0,1,477,4,1,MIX,4,1,499.0,500.0,,,,,CM,old,1
7589,7590,7,8,20,1,1,2,2,1,1,1,1,526,2,1,MIX,2,501,,,,,,,CM,old,0
7590,7591,7,8,21,1,1,4,1,4,1,1,1,657,503,0,MIX,2,8,502.0,503.0,,,,,AN,old,0
7591,7592,7,8,22,1,1,2,2,1,1,1,1,410,504,0,MIX,8,504,,,,,,,AN,old,0
7592,7593,7,8,23,1,1,4,4,1,1,1,1,385,506,0,MIX,8,6,505.0,506.0,,,,,AN,old,0
7593,7594,7,8,24,1,1,2,1,2,1,1,1,437,1,1,MIX,1,507,,,,,,,CM,old,0
7594,7595,7,9,1,1,1,4,3,2,2,1,0,642,5,1,MIX,8,5,508.0,509.0,,,,,CM,old,0
7595,7596,7,9,2,2,1,8,0,0,2,1,1,650,3,1,MIX,5,8,2.0,1.0,510.0,511.0,512.0,513.0,CM,new,0
7596,7597,7,9,3,1,1,2,1,2,1,1,1,435,1,1,MIX,1,514,,,,,,,CM,old,0
7597,7598,7,9,4,1,1,8,5,4,1,1,1,403,518,0,MIX,3,2,7.0,5.0,515.0,516.0,517.0,518.0,AN,old,0
7598,7599,7,9,5,1,1,4,2,3,2,1,0,443,519,0,MIX,1,6,519.0,520.0,,,,,AN,old,0
7599,7600,7,9,6,1,1,8,5,4,2,1,0,443,521,0,MIX,6,4,5.0,7.0,521.0,522.0,523.0,524.0,AN,old,0
7600,7601,7,9,7,1,1,2,1,2,1,1,1,444,2,1,MIX,2,525,,,,,,,CM,old,0
7601,7602,7,9,8,1,1,4,4,1,2,1,0,497,6,1,MIX,6,8,526.0,527.0,,,,,CM,old,0
7602,7603,7,9,9,1,1,2,1,2,1,1,1,400,528,0,MIX,5,528,,,,,,,AN,old,0
7603,7604,7,9,10,2,1,8,0,0,1,0,1,626,4,1,MIX,1,4,8.0,2.0,529.0,530.0,531.0,532.0,CM,new,1
7604,7605,7,9,11,1,1,2,1,2,1,1,1,428,533,0,MIX,1,533,,,,,,,AN,old,0
7605,7606,7,9,12,2,1,8,0,0,1,1,0,668,12,1,MIX,7,4,6.0,3.0,534.0,535.0,536.0,537.0,CM,new,0
7606,7607,7,9,13,2,1,4,0,0,2,1,1,538,1,1,MIX,2,7,538.0,539.0,,,,,CM,new,0
7607,7608,7,9,14,2,1,2,0,0,2,1,1,504,4,1,MIX,6,540,,,,,,,CM,new,0
7608,7609,7,9,15,2,1,2,0,0,2,1,1,599,3,1,MIX,7,541,,,,,,,CM,new,0
7609,7610,7,9,16,2,1,2,0,0,1,1,0,546,12,1,MIX,7,542,,,,,,,CM,new,0
7610,7611,7,9,17,2,1,8,0,0,2,0,0,959,12,1,MIX,1,3,7.0,6.0,543.0,544.0,545.0,546.0,CM,new,1
7611,7612,7,9,18,1,1,4,4,1,2,1,0,401,548,0,MIX,1,3,547.0,548.0,,,,,AN,old,0
7612,7613,7,9,19,2,1,2,0,0,1,1,0,467,550,0,MIX,1,549,,,,,,,AN,new,0
7613,7614,7,9,20,2,1,4,0,0,1,1,0,551,13,1,MIX,4,3,551.0,552.0,,,,,CM,new,0
7614,7615,7,9,21,1,1,4,2,3,1,1,1,533,554,0,MIX,1,8,553.0,554.0,,,,,AN,old,0
7615,7616,7,9,22,1,1,8,2,7,1,1,1,721,5,1,MIX,1,5,4.0,3.0,555.0,556.0,557.0,558.0,CM,old,0
7616,7617,7,9,23,2,1,8,0,0,1,0,1,613,5,1,MIX,8,7,6.0,5.0,559.0,560.0,561.0,562.0,CM,new,1
7617,7618,7,9,24,1,1,4,2,3,2,0,1,451,564,0,MIX,7,1,563.0,564.0,,,,,AN,old,1
7618,7619,8,2,1,2,1,8,0,0,2,1,1,1026,82,0,MIX,5,1,7.0,4.0,78.0,79.0,80.0,81.0,AN,new,0
7619,7620,8,2,2,2,1,8,0,0,2,1,1,1100,8,1,MIX,8,3,5.0,1.0,83.0,84.0,85.0,86.0,CM,new,0
7620,7621,8,2,3,2,1,2,0,0,2,1,1,947,88,0,MIX,6,87,,,,,,,AN,new,0
7621,7622,8,2,4,2,1,4,0,0,1,1,0,806,91,0,MIX,4,1,89.0,90.0,,,,,AN,new,0
7622,7623,8,2,5,2,1,8,0,0,1,1,0,1512,96,0,MIX,7,6,4.0,5.0,92.0,93.0,94.0,95.0,AN,new,0
7623,7624,8,2,6,1,1,4,2,3,2,1,0,788,97,0,MIX,7,2,97.0,98.0,,,,,AN,old,0
7624,7625,8,2,7,1,1,2,1,2,1,1,1,776,5,1,MIX,5,99,,,,,,,CM,old,0
7625,7626,8,2,8,1,1,8,3,6,2,1,0,1115,7,1,MIX,3,1,5.0,7.0,100.0,101.0,102.0,103.0,CM,old,0
7626,7627,8,2,9,1,1,2,2,1,2,1,0,690,4,1,MIX,4,104,,,,,,,CM,old,0
7627,7628,8,2,10,1,1,4,1,4,2,1,0,717,4,1,MIX,1,4,105.0,106.0,,,,,CM,old,0
7628,7629,8,2,11,2,1,2,0,0,2,1,1,1092,1,1,MIX,2,107,,,,,,,CM,new,0
7629,7630,8,2,12,1,1,4,4,1,2,1,0,818,109,0,MIX,6,4,108.0,109.0,,,,,AN,old,0
7630,7631,8,2,13,2,1,8,0,0,1,1,0,723,14,1,MIX,2,3,7.0,5.0,110.0,111.0,112.0,113.0,CM,new,0
7631,7632,8,2,14,2,1,2,0,0,1,1,0,585,115,0,MIX,8,114,,,,,,,AN,new,0
7632,7633,8,2,15,2,1,8,0,0,1,1,0,1044,10,1,MIX,6,1,5.0,4.0,116.0,117.0,118.0,119.0,CM,new,0
7633,7634,8,2,16,2,1,4,0,0,2,1,1,658,6,1,MIX,1,7,120.0,121.0,,,,,CM,new,0
7634,7635,8,2,17,2,1,4,0,0,1,1,0,752,124,0,MIX,4,5,122.0,123.0,,,,,AN,new,0
7635,7636,8,2,18,1,1,4,4,1,2,1,0,843,5,1,MIX,5,7,125.0,126.0,,,,,CM,old,0
7636,7637,8,2,19,1,1,4,1,4,2,1,0,817,6,1,MIX,5,6,127.0,128.0,,,,,CM,old,0
7637,7638,8,2,20,1,1,2,2,1,2,1,0,1124,5,1,MIX,5,129,,,,,,,CM,old,0
7638,7639,8,2,21,2,1,8,0,0,1,1,0,714,10,1,MIX,8,5,2.0,7.0,130.0,131.0,132.0,133.0,CM,new,0
7639,7640,8,2,22,2,1,8,0,0,2,1,1,846,138,0,MIX,8,3,4.0,1.0,134.0,135.0,136.0,137.0,AN,new,0
7640,7641,8,2,23,1,1,4,1,4,2,1,0,884,140,0,MIX,3,4,139.0,140.0,,,,,AN,old,0
7641,7642,8,2,24,2,1,8,0,0,1,0,1,930,3,1,MIX,7,1,6.0,5.0,141.0,142.0,143.0,144.0,CM,new,1
7642,7643,8,3,1,2,1,8,0,0,1,1,0,781,10,1,MIX,7,8,1.0,5.0,145.0,146.0,147.0,148.0,CM,new,0
7643,7644,8,3,2,1,1,4,4,1,2,1,0,566,4,1,MIX,3,4,149.0,150.0,,,,,CM,old,0
7644,7645,8,3,3,2,1,2,0,0,1,1,0,931,11,1,MIX,2,151,,,,,,,CM,new,0
7645,7646,8,3,4,2,1,8,0,0,1,1,0,703,16,1,MIX,5,3,4.0,1.0,152.0,153.0,154.0,155.0,CM,new,0
7646,7647,8,3,5,2,1,8,0,0,1,1,0,1268,160,0,MIX,7,2,1.0,3.0,156.0,157.0,158.0,159.0,AN,new,0
7647,7648,8,3,6,1,1,8,8,1,2,1,0,626,4,1,MIX,3,8,2.0,4.0,161.0,162.0,163.0,164.0,CM,old,0
7648,7649,8,3,7,1,1,4,2,3,1,1,1,818,3,1,MIX,3,2,165.0,166.0,,,,,CM,old,0
7649,7650,8,3,8,1,1,8,8,1,2,1,0,643,168,0,MIX,8,5,4.0,3.0,167.0,168.0,169.0,170.0,AN,old,0
7650,7651,8,3,9,2,1,8,0,0,1,1,0,955,175,0,MIX,5,4,8.0,3.0,171.0,172.0,173.0,174.0,AN,new,0
7651,7652,8,3,10,1,1,8,4,5,1,1,1,1222,176,0,MIX,7,8,6.0,3.0,176.0,177.0,178.0,179.0,AN,old,0
7652,7653,8,3,11,1,1,2,2,1,2,1,0,458,180,0,MIX,1,180,,,,,,,AN,old,0
7653,7654,8,3,12,2,1,4,0,0,2,1,1,1248,8,1,MIX,3,7,181.0,182.0,,,,,CM,new,0
7654,7655,8,3,13,2,1,4,0,0,1,1,0,627,185,0,MIX,5,3,183.0,184.0,,,,,AN,new,0
7655,7656,8,3,14,1,1,8,2,7,1,1,1,812,6,1,MIX,6,7,8.0,4.0,186.0,187.0,188.0,189.0,CM,old,0
7656,7657,8,3,15,1,1,8,2,7,2,0,1,1613,6,1,MIX,4,1,2.0,6.0,190.0,191.0,192.0,193.0,CM,old,1
7657,7658,8,3,16,2,1,4,0,0,1,1,0,869,9,1,MIX,2,7,194.0,195.0,,,,,CM,new,0
7658,7659,8,3,17,1,1,8,5,4,2,1,0,882,196,0,MIX,4,5,1.0,8.0,196.0,197.0,198.0,199.0,AN,old,0
7659,7660,8,3,18,1,1,2,1,2,2,1,0,947,200,0,MIX,6,200,,,,,,,AN,old,0
7660,7661,8,3,19,1,1,8,1,8,1,1,1,1231,4,1,MIX,7,6,4.0,5.0,201.0,202.0,203.0,204.0,CM,old,0
7661,7662,8,3,20,2,1,2,0,0,1,1,0,705,9,1,MIX,8,205,,,,,,,CM,new,0
7662,7663,8,3,21,1,1,2,2,1,1,1,1,681,206,0,MIX,7,206,,,,,,,AN,old,0
7663,7664,8,3,22,2,1,8,0,0,2,1,1,717,211,0,MIX,7,5,3.0,8.0,207.0,208.0,209.0,210.0,AN,new,0
7664,7665,8,3,23,2,1,2,0,0,1,1,0,629,213,0,MIX,4,212,,,,,,,AN,new,0
7665,7666,8,3,24,1,1,8,1,8,2,1,0,958,2,1,MIX,5,2,1.0,4.0,214.0,215.0,216.0,217.0,CM,old,0
7666,7667,8,4,1,1,1,2,1,2,2,1,0,456,218,0,MIX,6,218,,,,,,,AN,old,0
7667,7668,8,4,2,1,1,4,3,2,1,1,1,846,219,0,MIX,3,6,219.0,220.0,,,,,AN,old,0
7668,7669,8,4,3,2,1,8,0,0,1,1,0,622,225,0,MIX,1,6,3.0,5.0,221.0,222.0,223.0,224.0,AN,new,0
7669,7670,8,4,4,1,1,8,6,3,1,1,1,1366,1,1,MIX,1,8,3.0,2.0,226.0,227.0,228.0,229.0,CM,old,0
7670,7671,8,4,5,1,1,2,1,2,1,1,1,530,2,1,MIX,2,230,,,,,,,CM,old,0
7671,7672,8,4,6,1,1,4,1,4,2,1,0,757,232,0,MIX,8,6,231.0,232.0,,,,,AN,old,0
7672,7673,8,4,7,2,1,2,0,0,1,1,0,681,234,0,MIX,4,233,,,,,,,AN,new,0
7673,7674,8,4,8,2,1,8,0,0,1,1,0,720,239,0,MIX,3,5,7.0,1.0,235.0,236.0,237.0,238.0,AN,new,0
7674,7675,8,4,9,2,1,8,0,0,2,0,0,644,244,0,MIX,1,7,3.0,4.0,240.0,241.0,242.0,243.0,AN,new,1
7675,7676,8,4,10,2,1,2,0,0,1,1,0,653,246,0,MIX,2,245,,,,,,,AN,new,0
7676,7677,8,4,11,1,1,4,2,3,2,1,0,940,248,0,MIX,2,3,247.0,248.0,,,,,AN,old,0
7677,7678,8,4,12,2,1,2,0,0,1,1,0,667,16,1,MIX,7,249,,,,,,,CM,new,0
7678,7679,8,4,13,2,1,8,0,0,2,1,1,972,254,0,MIX,1,3,6.0,4.0,250.0,251.0,252.0,253.0,AN,new,0
7679,7680,8,4,14,1,1,4,1,4,2,1,0,670,255,0,MIX,1,6,255.0,256.0,,,,,AN,old,0
7680,7681,8,4,15,1,1,8,8,1,1,1,1,646,7,1,MIX,3,5,4.0,7.0,257.0,258.0,259.0,260.0,CM,old,0
7681,7682,8,4,16,1,1,2,1,2,1,1,1,736,261,0,MIX,3,261,,,,,,,AN,old,0
7682,7683,8,4,17,1,1,2,2,1,1,1,1,726,262,0,MIX,3,262,,,,,,,AN,old,0
7683,7684,8,4,18,1,1,2,2,1,1,1,1,572,2,1,MIX,2,263,,,,,,,CM,old,0
7684,7685,8,4,19,1,1,4,1,4,2,1,0,558,264,0,MIX,6,4,264.0,265.0,,,,,AN,old,0
7685,7686,8,4,20,2,1,4,0,0,2,1,1,753,268,0,MIX,5,8,266.0,267.0,,,,,AN,new,0
7686,7687,8,4,21,1,1,2,2,1,1,1,1,551,269,0,MIX,3,269,,,,,,,AN,old,0
7687,7688,8,4,22,2,1,4,0,0,2,1,1,666,272,0,MIX,7,6,270.0,271.0,,,,,AN,new,0
7688,7689,8,4,23,1,1,8,3,6,2,0,1,1614,274,0,MIX,8,6,2.0,1.0,273.0,274.0,275.0,276.0,AN,old,1
7689,7690,8,4,24,2,1,2,0,0,1,1,0,912,16,1,MIX,4,277,,,,,,,CM,new,0
7690,7691,8,5,1,2,1,4,0,0,2,1,1,655,280,0,MIX,3,5,278.0,279.0,,,,,AN,new,0
7691,7692,8,5,2,2,1,2,0,0,1,1,0,617,282,0,MIX,6,281,,,,,,,AN,new,0
7692,7693,8,5,3,2,1,8,0,0,1,1,0,1089,287,0,MIX,1,2,7.0,3.0,283.0,284.0,285.0,286.0,AN,new,0
7693,7694,8,5,4,1,1,8,5,4,2,1,0,999,8,1,MIX,1,4,8.0,5.0,288.0,289.0,290.0,291.0,CM,old,0
7694,7695,8,5,5,1,1,8,4,5,1,1,1,801,3,1,MIX,3,2,7.0,1.0,292.0,293.0,294.0,295.0,CM,old,0
7695,7696,8,5,6,2,1,2,0,0,2,1,1,772,297,0,MIX,3,296,,,,,,,AN,new,0
7696,7697,8,5,7,2,1,2,0,0,2,1,1,440,299,0,MIX,8,298,,,,,,,AN,new,0
7697,7698,8,5,8,2,1,8,0,0,2,1,1,807,304,0,MIX,3,1,7.0,4.0,300.0,301.0,302.0,303.0,AN,new,0
7698,7699,8,5,9,1,1,2,2,1,2,1,0,1114,305,0,MIX,7,305,,,,,,,AN,old,0
7699,7700,8,5,10,2,1,2,0,0,2,1,1,1345,5,1,MIX,1,306,,,,,,,CM,new,0
7701,7702,8,5,12,1,1,8,1,8,2,1,0,1023,2,1,MIX,2,8,4.0,7.0,309.0,310.0,311.0,312.0,CM,old,0
7702,7703,8,5,13,2,1,2,0,0,1,1,0,521,314,0,MIX,4,313,,,,,,,AN,new,0
7703,7704,8,5,14,1,1,8,8,1,1,1,1,886,1,1,MIX,3,8,5.0,1.0,315.0,316.0,317.0,318.0,CM,old,0
7704,7705,8,5,15,1,1,4,3,2,2,1,0,1050,3,1,MIX,3,5,319.0,320.0,,,,,CM,old,0
7705,7706,8,5,16,1,1,8,7,2,1,1,1,498,321,0,MIX,8,7,1.0,5.0,321.0,322.0,323.0,324.0,AN,old,0
7706,7707,8,5,17,1,1,8,7,2,1,1,1,704,3,1,MIX,5,6,8.0,3.0,325.0,326.0,327.0,328.0,CM,old,0
7707,7708,8,5,18,1,1,2,2,1,1,1,1,807,329,0,MIX,7,329,,,,,,,AN,old,0
7708,7709,8,5,19,1,1,8,5,4,1,1,1,438,2,1,MIX,8,4,7.0,2.0,330.0,331.0,332.0,333.0,CM,old,0
7709,7710,8,5,20,1,1,2,1,2,2,1,0,824,4,1,MIX,4,334,,,,,,,CM,old,0
7710,7711,8,5,21,1,1,4,2,3,1,0,0,1183,3,1,MIX,1,3,335.0,336.0,,,,,CM,old,1
7711,7712,8,5,22,2,1,2,0,0,2,1,1,610,338,0,MIX,2,337,,,,,,,AN,new,0
7712,7713,8,5,23,2,1,8,0,0,2,1,1,1003,8,1,MIX,6,5,1.0,3.0,339.0,340.0,341.0,342.0,CM,new,0
7713,7714,8,5,24,2,1,8,0,0,2,1,1,1189,1,1,MIX,1,4,6.0,7.0,343.0,344.0,345.0,346.0,CM,new,0
7714,7715,8,6,1,2,1,4,0,0,1,1,0,606,10,1,MIX,6,4,347.0,348.0,,,,,CM,new,0
7715,7716,8,6,2,1,1,4,2,3,1,1,1,671,5,1,MIX,1,5,349.0,350.0,,,,,CM,old,0
7716,7717,8,6,3,2,1,8,0,0,1,0,1,773,4,1,MIX,1,3,6.0,5.0,351.0,352.0,353.0,354.0,CM,new,1
7717,7718,8,6,4,2,1,4,0,0,2,1,1,750,357,0,MIX,7,6,355.0,356.0,,,,,AN,new,0
7719,7720,8,6,6,2,1,4,0,0,1,1,0,650,364,0,MIX,8,4,362.0,363.0,,,,,AN,new,0
7720,7721,8,6,7,2,1,4,0,0,1,1,0,760,11,1,MIX,1,5,365.0,366.0,,,,,CM,new,0
7721,7722,8,6,8,1,1,2,2,1,1,1,1,604,8,1,MIX,8,367,,,,,,,CM,old,0
7722,7723,8,6,9,2,1,2,0,0,2,1,1,1096,369,0,MIX,2,368,,,,,,,AN,new,0
7723,7724,8,6,10,1,1,8,8,1,1,1,1,1325,5,1,MIX,2,4,5.0,7.0,370.0,371.0,372.0,373.0,CM,old,0
7725,7726,8,6,12,2,1,8,0,0,1,1,0,501,382,0,MIX,8,5,4.0,6.0,378.0,379.0,380.0,381.0,AN,new,0
7726,7727,8,6,13,1,1,2,1,2,1,1,1,469,383,0,MIX,7,383,,,,,,,AN,old,0
7727,7728,8,6,14,2,1,4,0,0,2,1,1,585,386,0,MIX,5,1,384.0,385.0,,,,,AN,new,0
7728,7729,8,6,15,2,1,2,0,0,2,1,1,630,6,1,MIX,8,387,,,,,,,CM,new,0
7729,7730,8,6,16,2,1,8,0,0,1,1,0,1023,13,1,MIX,7,1,5.0,3.0,388.0,389.0,390.0,391.0,CM,new,0
7730,7731,8,6,17,2,1,2,0,0,1,1,0,618,11,1,MIX,2,392,,,,,,,CM,new,0
7731,7732,8,6,18,2,1,2,0,0,1,1,0,613,394,0,MIX,7,393,,,,,,,AN,new,0
7732,7733,8,6,19,1,1,4,4,1,2,1,0,1125,395,0,MIX,2,4,395.0,396.0,,,,,AN,old,0
7733,7734,8,6,20,1,1,4,4,1,2,1,0,849,397,0,MIX,3,1,397.0,398.0,,,,,AN,old,0
7735,7736,8,6,22,2,1,2,0,0,2,1,1,775,7,1,MIX,4,401,,,,,,,CM,new,0
7736,7737,8,6,23,1,1,2,2,1,2,1,0,1148,402,0,MIX,4,402,,,,,,,AN,old,0
7737,7738,8,6,24,2,1,4,0,0,2,1,1,612,405,0,MIX,2,6,403.0,404.0,,,,,AN,new,0
7738,7739,8,7,1,2,1,4,0,0,2,1,1,610,408,0,MIX,8,6,406.0,407.0,,,,,AN,new,0
7739,7740,8,7,2,1,1,2,1,2,1,1,1,542,409,0,MIX,7,409,,,,,,,AN,old,0
7740,7741,8,7,3,2,1,4,0,0,2,0,0,673,15,1,MIX,8,6,410.0,411.0,,,,,CM,new,1
7741,7742,8,7,4,1,1,8,4,5,1,1,1,742,4,1,MIX,4,7,1.0,5.0,412.0,413.0,414.0,415.0,CM,old,0
7742,7743,8,7,5,2,1,2,0,0,2,1,1,506,417,0,MIX,3,416,,,,,,,AN,new,0
7743,7744,8,7,6,2,1,2,0,0,2,1,1,505,419,0,MIX,4,418,,,,,,,AN,new,0
7744,7745,8,7,7,2,1,4,0,0,1,1,0,589,422,0,MIX,2,8,420.0,421.0,,,,,AN,new,0
7745,7746,8,7,8,1,1,8,7,2,2,1,0,679,5,1,MIX,2,8,5.0,6.0,423.0,424.0,425.0,426.0,CM,old,0
7746,7747,8,7,9,2,1,4,0,0,1,1,0,1060,13,1,MIX,6,2,427.0,428.0,,,,,CM,new,0
7747,7748,8,7,10,1,1,4,2,3,1,1,1,882,1,1,MIX,1,2,429.0,430.0,,,,,CM,old,0
7748,7749,8,7,11,1,1,4,3,2,1,0,0,965,2,1,MIX,7,2,431.0,432.0,,,,,CM,old,1
7749,7750,8,7,12,2,1,8,0,0,2,1,1,879,437,0,MIX,2,6,4.0,8.0,433.0,434.0,435.0,436.0,AN,new,0
7750,7751,8,7,13,2,1,8,0,0,2,1,1,879,7,1,MIX,4,2,6.0,8.0,438.0,439.0,440.0,441.0,CM,new,0
7751,7752,8,7,14,1,1,8,3,6,2,1,0,1679,4,1,MIX,1,2,4.0,7.0,442.0,443.0,444.0,445.0,CM,old,0
7752,7753,8,7,15,2,1,8,0,0,2,1,1,684,450,0,MIX,3,6,8.0,7.0,446.0,447.0,448.0,449.0,AN,new,0
7753,7754,8,7,16,2,1,8,0,0,1,1,0,931,15,1,MIX,4,7,2.0,5.0,451.0,452.0,453.0,454.0,CM,new,0
7754,7755,8,7,17,2,1,8,0,0,1,1,0,511,459,0,MIX,7,1,6.0,4.0,455.0,456.0,457.0,458.0,AN,new,0
7755,7756,8,7,18,2,1,2,0,0,1,1,0,462,461,0,MIX,8,460,,,,,,,AN,new,0
7756,7757,8,7,19,2,1,2,0,0,1,1,0,512,9,1,MIX,4,462,,,,,,,CM,new,0
7757,7758,8,7,20,1,1,4,4,1,2,1,0,484,463,0,MIX,4,1,463.0,464.0,,,,,AN,old,0
7758,7759,8,7,21,1,1,2,1,2,2,1,0,884,6,1,MIX,6,465,,,,,,,CM,old,0
7759,7760,8,7,22,2,1,2,0,0,2,1,1,484,467,0,MIX,5,466,,,,,,,AN,new,0
7760,7761,8,7,23,1,1,2,2,1,2,1,0,739,468,0,MIX,7,468,,,,,,,AN,old,0
7761,7762,8,7,24,2,1,4,0,0,2,1,1,1311,5,1,MIX,1,7,469.0,470.0,,,,,CM,new,0
7762,7763,8,8,1,2,1,4,0,0,1,1,0,439,473,0,MIX,6,1,471.0,472.0,,,,,AN,new,0
7763,7764,8,8,2,1,1,8,4,5,2,1,0,743,1,1,MIX,7,8,1.0,2.0,474.0,475.0,476.0,477.0,CM,old,0
7764,7765,8,8,3,1,1,2,2,1,2,1,0,461,6,1,MIX,6,478,,,,,,,CM,old,0
7765,7766,8,8,4,2,1,4,0,0,2,1,1,1283,2,1,MIX,5,1,479.0,480.0,,,,,CM,new,0
7766,7767,8,8,5,1,1,8,3,6,1,0,0,817,5,1,MIX,5,7,4.0,6.0,481.0,482.0,483.0,484.0,CM,old,1
7767,7768,8,8,6,2,1,8,0,0,1,1,0,688,15,1,MIX,5,6,2.0,8.0,485.0,486.0,487.0,488.0,CM,new,0
7768,7769,8,8,7,2,1,8,0,0,2,1,1,631,493,0,MIX,3,2,6.0,5.0,489.0,490.0,491.0,492.0,AN,new,0
7769,7770,8,8,8,1,1,4,1,4,1,1,1,806,494,0,MIX,5,3,494.0,495.0,,,,,AN,old,0
7770,7771,8,8,9,2,1,2,0,0,1,1,0,682,14,1,MIX,3,496,,,,,,,CM,new,0
7771,7772,8,8,10,1,1,4,2,3,2,0,1,807,8,1,MIX,8,6,497.0,498.0,,,,,CM,old,1
7772,7773,8,8,11,2,1,2,0,0,2,1,1,826,500,0,MIX,1,499,,,,,,,AN,new,0
7773,7774,8,8,12,1,1,4,1,4,1,1,1,865,2,1,MIX,2,3,501.0,502.0,,,,,CM,old,0
7774,7775,8,8,13,2,1,4,0,0,1,1,0,759,16,1,MIX,5,1,503.0,504.0,,,,,CM,new,0
7775,7776,8,8,14,1,1,2,2,1,2,1,0,748,505,0,MIX,6,505,,,,,,,AN,old,0
7776,7777,8,8,15,2,1,4,0,0,2,1,1,725,6,1,MIX,1,3,506.0,507.0,,,,,CM,new,0
7777,7778,8,8,16,1,1,8,4,5,1,1,1,651,509,0,MIX,8,3,5.0,6.0,508.0,509.0,510.0,511.0,AN,old,0
7778,7779,8,8,17,1,1,4,3,2,1,1,1,682,8,1,MIX,4,8,512.0,513.0,,,,,CM,old,0
7779,7780,8,8,18,1,1,2,1,2,2,1,0,514,514,0,MIX,4,514,,,,,,,AN,old,0
7780,7781,8,8,19,2,1,8,0,0,2,0,0,1343,519,0,MIX,3,7,5.0,4.0,515.0,516.0,517.0,518.0,AN,new,1
7781,7782,8,8,20,2,1,2,0,0,2,1,1,877,7,1,MIX,8,520,,,,,,,CM,new,0
7782,7783,8,8,21,1,1,2,2,1,1,1,1,413,521,0,MIX,4,521,,,,,,,AN,old,0
7783,7784,8,8,22,1,1,2,1,2,1,1,1,625,4,1,MIX,4,522,,,,,,,CM,old,0
7784,7785,8,8,23,1,1,2,2,1,2,1,0,347,523,0,MIX,3,523,,,,,,,AN,old,0
7785,7786,8,8,24,2,1,2,0,0,1,1,0,769,16,1,MIX,4,524,,,,,,,CM,new,0
7786,7787,8,9,1,2,1,8,0,0,1,0,1,848,4,1,MIX,1,4,5.0,3.0,525.0,526.0,527.0,528.0,CM,new,1
7787,7788,8,9,2,2,1,2,0,0,1,0,1,849,3,1,MIX,1,529,,,,,,,CM,new,1
7788,7789,8,9,3,2,1,8,0,0,2,1,1,1393,6,1,MIX,6,5,8.0,4.0,530.0,531.0,532.0,533.0,CM,new,0
7789,7790,8,9,4,2,1,4,0,0,1,1,0,578,16,1,MIX,4,1,534.0,535.0,,,,,CM,new,0
7791,7792,8,9,6,2,1,2,0,0,1,1,0,1298,13,1,MIX,5,541,,,,,,,CM,new,0
7792,7793,8,9,7,1,1,8,2,7,1,0,0,721,2,1,MIX,7,4,2.0,1.0,542.0,543.0,544.0,545.0,CM,old,1
7793,7794,8,9,8,2,1,2,0,0,2,1,1,696,547,0,MIX,4,546,,,,,,,AN,new,0
7794,7795,8,9,9,2,1,2,0,0,2,1,1,1232,3,1,MIX,3,548,,,,,,,CM,new,0
7795,7796,8,9,10,1,1,2,2,1,2,1,0,1090,549,0,MIX,8,549,,,,,,,AN,old,0
7797,7798,8,9,12,2,1,4,0,0,2,1,1,678,556,0,MIX,2,3,554.0,555.0,,,,,AN,new,0
7798,7799,8,9,13,1,1,4,2,3,2,1,0,771,2,1,MIX,1,2,557.0,558.0,,,,,CM,old,0
7799,7800,8,9,14,2,1,2,0,0,2,1,1,952,5,1,MIX,4,559,,,,,,,CM,new,0
7800,7801,8,9,15,1,1,2,2,1,1,1,1,629,560,0,MIX,6,560,,,,,,,AN,old,0
7801,7802,8,9,16,1,1,2,1,2,1,1,1,689,561,0,MIX,1,561,,,,,,,AN,old,0
7802,7803,8,9,17,1,1,4,3,2,1,1,1,1342,562,0,MIX,3,5,562.0,563.0,,,,,AN,old,0
7803,7804,8,9,18,1,1,8,1,8,1,1,1,1432,565,0,MIX,2,8,1.0,4.0,564.0,565.0,566.0,567.0,AN,old,0
7804,7805,8,9,19,2,1,4,0,0,1,0,1,1015,7,1,MIX,6,3,568.0,569.0,,,,,CM,new,1
7806,7807,8,9,21,1,1,4,2,3,1,0,0,1941,575,0,MIX,2,5,574.0,575.0,,,,,AN,old,1
7807,7808,8,9,22,1,1,8,7,2,1,1,1,698,4,1,MIX,8,7,2.0,4.0,576.0,577.0,578.0,579.0,CM,old,0
7808,7809,8,9,23,2,1,2,0,0,1,1,0,1762,16,1,MIX,5,580,,,,,,,CM,new,0
7809,7810,8,9,24,2,1,4,0,0,1,1,0,628,9,1,MIX,1,4,581.0,582.0,,,,,CM,new,0
7810,7811,9,2,1,1,1,4,4,1,1,1,1,977,81,0,MIX,7,8,80.0,81.0,,,,,AN,old,0
7811,7812,9,2,2,2,1,2,0,0,1,1,0,815,10,1,MIX,3,82,,,,,,,CM,new,0
7812,7813,9,2,3,1,1,8,6,3,1,0,0,987,84,0,MIX,5,3,4.0,2.0,83.0,84.0,85.0,86.0,AN,old,1
7813,7814,9,2,4,2,1,8,0,0,1,1,0,814,91,0,MIX,6,2,7.0,5.0,87.0,88.0,89.0,90.0,AN,new,0
7814,7815,9,2,5,1,1,2,2,1,2,1,0,1491,92,0,MIX,4,92,,,,,,,AN,old,0
7815,7816,9,2,6,2,1,4,0,0,2,1,1,1424,95,0,MIX,2,1,93.0,94.0,,,,,AN,new,0
7816,7817,9,2,7,2,1,2,0,0,2,1,1,1261,6,1,MIX,8,96,,,,,,,CM,new,0
7817,7818,9,2,8,1,1,8,7,2,1,1,1,1120,2,1,MIX,8,4,1.0,2.0,97.0,98.0,99.0,100.0,CM,old,0
7818,7819,9,2,9,2,1,2,0,0,2,1,1,1175,4,1,MIX,8,101,,,,,,,CM,new,0
7819,7820,9,2,10,1,1,8,7,2,2,1,0,828,3,1,MIX,6,1,3.0,2.0,102.0,103.0,104.0,105.0,CM,old,0
7820,7821,9,2,11,1,1,2,2,1,1,1,1,864,7,1,MIX,7,106,,,,,,,CM,old,0
7821,7822,9,2,12,2,1,2,0,0,1,1,0,1002,15,1,MIX,7,107,,,,,,,CM,new,0
7822,7823,9,2,13,1,1,8,5,4,1,0,0,958,109,0,MIX,6,7,1.0,3.0,108.0,109.0,110.0,111.0,AN,old,1
